Subject	Age	Sex	Experiment	Version	Block	TrialType	Trial	Timestamp	SameDiff	Rotation	Response	Acc	RT
44	19	 M	PSYC4802-20134	0.98	Block	practice	1	20131016.115901	same	20	diff	0	7888
44	19	 M	PSYC4802-20134	0.98	Block	practice	2	20131016.115911	diff	60	diff	1	7975
44	19	 M	PSYC4802-20134	0.98	Block	practice	3	20131016.115921	diff	20	diff	1	1887
44	19	 M	PSYC4802-20134	0.98	Block	practice	4	20131016.115925	same	60	same	1	1255
44	19	 M	PSYC4802-20134	0.98	Block	practice	5	20131016.115928	diff	60	same	0	1577
44	19	 M	PSYC4802-20134	0.98	Block	practice	6	20131016.115932	diff	100	same	0	4829
44	19	 M	PSYC4802-20134	0.98	Block	practice	7	20131016.115938	same	100	same	1	1430
44	19	 M	PSYC4802-20134	0.98	Block	practice	8	20131016.115942	same	20	same	1	1131
44	19	 M	PSYC4802-20134	0.98	Block	practice	9	20131016.115945	same	100	same	1	1120
44	19	 M	PSYC4802-20134	0.98	Block	practice	10	20131016.115948	diff	60	same	0	1202
44	19	 M	PSYC4802-20134	0.98	Block	practice	11	20131016.115951	same	60	same	1	639
44	19	 M	PSYC4802-20134	0.98	Block	practice	12	20131016.115954	same	100	same	1	968
44	19	 M	PSYC4802-20134	0.98	Block	practice	13	20131016.115957	diff	20	diff	1	739
44	19	 M	PSYC4802-20134	0.98	Block	practice	14	20131016.120000	same	100	diff	0	874
44	19	 M	PSYC4802-20134	0.98	Block	practice	15	20131016.120002	diff	100	same	0	646
44	19	 M	PSYC4802-20134	0.98	Block	practice	16	20131016.120005	diff	20	same	0	780
44	19	 M	PSYC4802-20134	0.98	Block	practice	17	20131016.120008	diff	100	same	0	716
44	19	 M	PSYC4802-20134	0.98	Block	practice	18	20131016.120011	diff	20	diff	1	716
44	19	 M	PSYC4802-20134	0.98	Block	practice	19	20131016.120013	same	20	diff	0	388
44	19	 M	PSYC4802-20134	0.98	Block	practice	20	20131016.120016	same	100	same	1	212
44	19	 M	PSYC4802-20134	0.98	Block	practice	21	20131016.120018	diff	100	diff	1	973
44	19	 M	PSYC4802-20134	0.98	Block	practice	22	20131016.120021	same	20	same	1	1003
44	19	 M	PSYC4802-20134	0.98	Block	practice	23	20131016.120024	same	60	same	1	645
44	19	 M	PSYC4802-20134	0.98	Block	practice	24	20131016.120026	diff	60	diff	1	734
44	19	 M	PSYC4802-20134	0.98	Block	practice	25	20131016.120029	same	60	same	1	897
44	19	 M	PSYC4802-20134	0.98	Block	practice	26	20131016.120032	same	60	same	1	1039
44	19	 M	PSYC4802-20134	0.98	Block	practice	27	20131016.120035	diff	20	diff	1	675
44	19	 M	PSYC4802-20134	0.98	Block	practice	28	20131016.120038	diff	60	diff	1	1243
44	19	 M	PSYC4802-20134	0.98	Block	practice	29	20131016.120041	diff	100	diff	1	1847
44	19	 M	PSYC4802-20134	0.98	Block	practice	30	20131016.120045	same	20	same	1	862
44	19	 M	PSYC4802-20134	0.98	Block	exp	31	20131016.120048	same	20	same	1	833
44	19	 M	PSYC4802-20134	0.98	Block	exp	32	20131016.120050	diff	60	diff	1	733
44	19	 M	PSYC4802-20134	0.98	Block	exp	33	20131016.120053	diff	60	diff	1	633
44	19	 M	PSYC4802-20134	0.98	Block	exp	34	20131016.120056	diff	20	diff	1	710
44	19	 M	PSYC4802-20134	0.98	Block	exp	35	20131016.120058	diff	20	diff	1	628
44	19	 M	PSYC4802-20134	0.98	Block	exp	36	20131016.120101	diff	20	diff	1	681
44	19	 M	PSYC4802-20134	0.98	Block	exp	37	20131016.120104	diff	20	diff	1	517
44	19	 M	PSYC4802-20134	0.98	Block	exp	38	20131016.120106	same	60	same	1	763
44	19	 M	PSYC4802-20134	0.98	Block	exp	39	20131016.120109	diff	60	diff	1	511
44	19	 M	PSYC4802-20134	0.98	Block	exp	40	20131016.120112	diff	100	same	0	646
44	19	 M	PSYC4802-20134	0.98	Block	exp	41	20131016.120114	same	100	diff	0	634
44	19	 M	PSYC4802-20134	0.98	Block	exp	42	20131016.120117	diff	100	diff	1	904
44	19	 M	PSYC4802-20134	0.98	Block	exp	43	20131016.120120	diff	100	diff	1	570
44	19	 M	PSYC4802-20134	0.98	Block	exp	44	20131016.120122	same	20	same	1	663
44	19	 M	PSYC4802-20134	0.98	Block	exp	45	20131016.120125	same	100	same	1	734
44	19	 M	PSYC4802-20134	0.98	Block	exp	46	20131016.120128	same	20	same	1	558
44	19	 M	PSYC4802-20134	0.98	Block	exp	47	20131016.120130	same	100	diff	0	945
44	19	 M	PSYC4802-20134	0.98	Block	exp	48	20131016.120133	same	100	same	1	728
44	19	 M	PSYC4802-20134	0.98	Block	exp	49	20131016.120136	diff	100	diff	1	739
44	19	 M	PSYC4802-20134	0.98	Block	exp	50	20131016.120139	same	20	same	1	563
44	19	 M	PSYC4802-20134	0.98	Block	exp	51	20131016.120148	same	100	same	1	1425
44	19	 M	PSYC4802-20134	0.98	Block	exp	52	20131016.120152	diff	100	diff	1	956
44	19	 M	PSYC4802-20134	0.98	Block	exp	53	20131016.120155	diff	20	diff	1	839
44	19	 M	PSYC4802-20134	0.98	Block	exp	54	20131016.120158	diff	20	diff	1	833
44	19	 M	PSYC4802-20134	0.98	Block	exp	55	20131016.120201	same	100	same	1	1911
44	19	 M	PSYC4802-20134	0.98	Block	exp	56	20131016.120204	diff	60	diff	1	2175
44	19	 M	PSYC4802-20134	0.98	Block	exp	57	20131016.120209	diff	100	diff	1	997
44	19	 M	PSYC4802-20134	0.98	Block	exp	58	20131016.120212	same	100	same	1	651
44	19	 M	PSYC4802-20134	0.98	Block	exp	59	20131016.120214	same	60	diff	0	839
44	19	 M	PSYC4802-20134	0.98	Block	exp	60	20131016.120217	diff	20	diff	1	681
44	19	 M	PSYC4802-20134	0.98	Block	exp	61	20131016.120220	diff	20	diff	1	1185
44	19	 M	PSYC4802-20134	0.98	Block	exp	62	20131016.120223	same	20	same	1	693
44	19	 M	PSYC4802-20134	0.98	Block	exp	63	20131016.120226	diff	60	diff	1	868
44	19	 M	PSYC4802-20134	0.98	Block	exp	64	20131016.120228	diff	100	diff	1	1759
44	19	 M	PSYC4802-20134	0.98	Block	exp	65	20131016.120232	diff	20	diff	1	1185
44	19	 M	PSYC4802-20134	0.98	Block	exp	66	20131016.120235	diff	60	diff	1	5187
44	19	 M	PSYC4802-20134	0.98	Block	exp	67	20131016.120243	diff	100	diff	1	734
44	19	 M	PSYC4802-20134	0.98	Block	exp	68	20131016.120245	diff	100	diff	1	968
44	19	 M	PSYC4802-20134	0.98	Block	exp	69	20131016.120248	diff	20	diff	1	3095
44	19	 M	PSYC4802-20134	0.98	Block	exp	70	20131016.120253	same	100	same	1	1138
44	19	 M	PSYC4802-20134	0.98	Block	exp	71	20131016.120256	diff	20	diff	1	1114
44	19	 M	PSYC4802-20134	0.98	Block	exp	72	20131016.120259	diff	100	diff	1	3558
44	19	 M	PSYC4802-20134	0.98	Block	exp	73	20131016.120305	same	20	same	1	1056
44	19	 M	PSYC4802-20134	0.98	Block	exp	74	20131016.120308	diff	20	diff	1	1044
44	19	 M	PSYC4802-20134	0.98	Block	exp	75	20131016.120311	same	60	same	1	645
44	19	 M	PSYC4802-20134	0.98	Block	exp	76	20131016.120314	diff	60	diff	1	722
44	19	 M	PSYC4802-20134	0.98	Block	exp	77	20131016.120316	diff	100	diff	1	2286
44	19	 M	PSYC4802-20134	0.98	Block	exp	78	20131016.120321	diff	100	diff	1	1074
44	19	 M	PSYC4802-20134	0.98	Block	exp	79	20131016.120324	same	60	same	1	722
44	19	 M	PSYC4802-20134	0.98	Block	exp	80	20131016.120326	same	60	same	1	605
44	19	 M	PSYC4802-20134	0.98	Block	exp	81	20131016.120329	diff	60	diff	1	552
44	19	 M	PSYC4802-20134	0.98	Block	exp	82	20131016.120331	same	100	same	1	740
44	19	 M	PSYC4802-20134	0.98	Block	exp	83	20131016.120334	diff	20	same	0	681
44	19	 M	PSYC4802-20134	0.98	Block	exp	84	20131016.120337	same	20	same	1	581
44	19	 M	PSYC4802-20134	0.98	Block	exp	85	20131016.120339	same	100	same	1	693
44	19	 M	PSYC4802-20134	0.98	Block	exp	86	20131016.120342	same	100	same	1	775
44	19	 M	PSYC4802-20134	0.98	Block	exp	87	20131016.120345	diff	100	diff	1	1038
44	19	 M	PSYC4802-20134	0.98	Block	exp	88	20131016.120348	diff	100	same	0	686
44	19	 M	PSYC4802-20134	0.98	Block	exp	89	20131016.120350	diff	60	diff	1	740
44	19	 M	PSYC4802-20134	0.98	Block	exp	90	20131016.120353	same	100	diff	0	921
44	19	 M	PSYC4802-20134	0.98	Block	exp	91	20131016.120356	diff	60	diff	1	980
44	19	 M	PSYC4802-20134	0.98	Block	exp	92	20131016.120359	same	60	same	1	1038
44	19	 M	PSYC4802-20134	0.98	Block	exp	93	20131016.120402	same	20	same	1	698
44	19	 M	PSYC4802-20134	0.98	Block	exp	94	20131016.120405	diff	60	diff	1	939
44	19	 M	PSYC4802-20134	0.98	Block	exp	95	20131016.120408	diff	20	diff	1	798
44	19	 M	PSYC4802-20134	0.98	Block	exp	96	20131016.120410	diff	100	same	0	721
44	19	 M	PSYC4802-20134	0.98	Block	exp	97	20131016.120413	same	100	same	1	1184
44	19	 M	PSYC4802-20134	0.98	Block	exp	98	20131016.120416	same	20	same	1	663
44	19	 M	PSYC4802-20134	0.98	Block	exp	99	20131016.120419	same	60	same	1	1038
44	19	 M	PSYC4802-20134	0.98	Block	exp	100	20131016.120422	diff	20	diff	1	740
44	19	 M	PSYC4802-20134	0.98	Block	exp	101	20131016.120500	diff	100	diff	1	1132
44	19	 M	PSYC4802-20134	0.98	Block	exp	102	20131016.120503	same	60	same	1	810
44	19	 M	PSYC4802-20134	0.98	Block	exp	103	20131016.120506	same	100	diff	0	739
44	19	 M	PSYC4802-20134	0.98	Block	exp	104	20131016.120508	diff	100	same	0	874
44	19	 M	PSYC4802-20134	0.98	Block	exp	105	20131016.120511	same	100	same	1	745
44	19	 M	PSYC4802-20134	0.98	Block	exp	106	20131016.120514	same	60	same	1	692
44	19	 M	PSYC4802-20134	0.98	Block	exp	107	20131016.120517	diff	60	diff	1	698
44	19	 M	PSYC4802-20134	0.98	Block	exp	108	20131016.120519	diff	100	diff	1	822
44	19	 M	PSYC4802-20134	0.98	Block	exp	109	20131016.120522	same	20	same	1	628
44	19	 M	PSYC4802-20134	0.98	Block	exp	110	20131016.120525	diff	100	diff	1	774
44	19	 M	PSYC4802-20134	0.98	Block	exp	111	20131016.120527	diff	20	diff	1	804
44	19	 M	PSYC4802-20134	0.98	Block	exp	112	20131016.120530	same	100	same	1	751
44	19	 M	PSYC4802-20134	0.98	Block	exp	113	20131016.120533	same	60	same	1	921
44	19	 M	PSYC4802-20134	0.98	Block	exp	114	20131016.120536	diff	60	diff	1	610
44	19	 M	PSYC4802-20134	0.98	Block	exp	115	20131016.120539	diff	60	diff	1	663
44	19	 M	PSYC4802-20134	0.98	Block	exp	116	20131016.120541	same	20	diff	0	364
44	19	 M	PSYC4802-20134	0.98	Block	exp	117	20131016.120544	same	100	diff	0	757
44	19	 M	PSYC4802-20134	0.98	Block	exp	118	20131016.120546	diff	100	diff	1	692
44	19	 M	PSYC4802-20134	0.98	Block	exp	119	20131016.120549	same	60	same	1	816
44	19	 M	PSYC4802-20134	0.98	Block	exp	120	20131016.120552	diff	20	diff	1	1196
44	19	 M	PSYC4802-20134	0.98	Block	exp	121	20131016.120555	same	20	same	1	681
44	19	 M	PSYC4802-20134	0.98	Block	exp	122	20131016.120557	same	20	same	1	657
44	19	 M	PSYC4802-20134	0.98	Block	exp	123	20131016.120600	diff	100	same	0	593
44	19	 M	PSYC4802-20134	0.98	Block	exp	124	20131016.120603	same	20	same	1	657
44	19	 M	PSYC4802-20134	0.98	Block	exp	125	20131016.120605	diff	60	same	0	1109
44	19	 M	PSYC4802-20134	0.98	Block	exp	126	20131016.120608	same	20	same	1	1027
44	19	 M	PSYC4802-20134	0.98	Block	exp	127	20131016.120611	diff	20	diff	1	599
44	19	 M	PSYC4802-20134	0.98	Block	exp	128	20131016.120614	diff	60	same	0	628
44	19	 M	PSYC4802-20134	0.98	Block	exp	129	20131016.120616	same	60	same	1	851
44	19	 M	PSYC4802-20134	0.98	Block	exp	130	20131016.120619	same	60	same	1	1044
44	19	 M	PSYC4802-20134	0.98	Block	exp	131	20131016.120622	same	60	diff	0	810
44	19	 M	PSYC4802-20134	0.98	Block	exp	132	20131016.120625	same	60	same	1	622
44	19	 M	PSYC4802-20134	0.98	Block	exp	133	20131016.120628	same	20	same	1	511
44	19	 M	PSYC4802-20134	0.98	Block	exp	134	20131016.120630	same	60	same	1	599
44	19	 M	PSYC4802-20134	0.98	Block	exp	135	20131016.120633	same	20	same	1	850
44	19	 M	PSYC4802-20134	0.98	Block	exp	136	20131016.120636	diff	20	diff	1	728
44	19	 M	PSYC4802-20134	0.98	Block	exp	137	20131016.120638	diff	60	diff	1	657
44	19	 M	PSYC4802-20134	0.98	Block	exp	138	20131016.120641	same	60	same	1	610
44	19	 M	PSYC4802-20134	0.98	Block	exp	139	20131016.120644	diff	60	diff	1	1249
44	19	 M	PSYC4802-20134	0.98	Block	exp	140	20131016.120647	same	20	same	1	646
44	19	 M	PSYC4802-20134	0.98	Block	exp	141	20131016.120649	diff	100	diff	1	1718
44	19	 M	PSYC4802-20134	0.98	Block	exp	142	20131016.120653	same	100	same	1	1290
44	19	 M	PSYC4802-20134	0.98	Block	exp	143	20131016.120656	same	60	same	1	599
44	19	 M	PSYC4802-20134	0.98	Block	exp	144	20131016.120659	same	20	same	1	587
44	19	 M	PSYC4802-20134	0.98	Block	exp	145	20131016.120701	same	60	same	1	716
44	19	 M	PSYC4802-20134	0.98	Block	exp	146	20131016.120704	diff	100	diff	1	745
44	19	 M	PSYC4802-20134	0.98	Block	exp	147	20131016.120707	same	100	diff	0	681
44	19	 M	PSYC4802-20134	0.98	Block	exp	148	20131016.120709	same	60	same	1	546
44	19	 M	PSYC4802-20134	0.98	Block	exp	149	20131016.120712	diff	60	diff	1	798
44	19	 M	PSYC4802-20134	0.98	Block	exp	150	20131016.120715	same	20	same	1	657
44	19	 M	PSYC4802-20134	0.98	Block	exp	151	20131016.120730	diff	60	diff	1	816
44	19	 M	PSYC4802-20134	0.98	Block	exp	152	20131016.120732	same	60	same	1	552
44	19	 M	PSYC4802-20134	0.98	Block	exp	153	20131016.120735	same	100	diff	0	693
44	19	 M	PSYC4802-20134	0.98	Block	exp	154	20131016.120738	same	20	same	1	581
44	19	 M	PSYC4802-20134	0.98	Block	exp	155	20131016.120740	same	100	same	1	481
44	19	 M	PSYC4802-20134	0.98	Block	exp	156	20131016.120743	same	100	diff	0	616
44	19	 M	PSYC4802-20134	0.98	Block	exp	157	20131016.120745	same	20	same	1	675
44	19	 M	PSYC4802-20134	0.98	Block	exp	158	20131016.120748	same	100	diff	0	751
44	19	 M	PSYC4802-20134	0.98	Block	exp	159	20131016.120751	diff	100	same	0	464
44	19	 M	PSYC4802-20134	0.98	Block	exp	160	20131016.120753	same	100	diff	0	581
44	19	 M	PSYC4802-20134	0.98	Block	exp	161	20131016.120755	diff	20	same	0	440
44	19	 M	PSYC4802-20134	0.98	Block	exp	162	20131016.120758	same	100	same	1	950
44	19	 M	PSYC4802-20134	0.98	Block	exp	163	20131016.120801	diff	20	diff	1	775
44	19	 M	PSYC4802-20134	0.98	Block	exp	164	20131016.120804	same	100	same	1	1331
44	19	 M	PSYC4802-20134	0.98	Block	exp	165	20131016.120807	same	60	same	1	822
44	19	 M	PSYC4802-20134	0.98	Block	exp	166	20131016.120810	same	60	same	1	552
44	19	 M	PSYC4802-20134	0.98	Block	exp	167	20131016.120812	diff	100	same	0	722
44	19	 M	PSYC4802-20134	0.98	Block	exp	168	20131016.120815	same	100	diff	0	1126
44	19	 M	PSYC4802-20134	0.98	Block	exp	169	20131016.120818	same	60	same	1	1185
44	19	 M	PSYC4802-20134	0.98	Block	exp	170	20131016.120821	diff	100	diff	1	763
44	19	 M	PSYC4802-20134	0.98	Block	exp	171	20131016.120824	diff	20	diff	1	746
44	19	 M	PSYC4802-20134	0.98	Block	exp	172	20131016.120827	diff	20	diff	1	1249
44	19	 M	PSYC4802-20134	0.98	Block	exp	173	20131016.120830	same	100	same	1	552
44	19	 M	PSYC4802-20134	0.98	Block	exp	174	20131016.120832	diff	100	diff	1	716
44	19	 M	PSYC4802-20134	0.98	Block	exp	175	20131016.120835	same	100	diff	0	892
44	19	 M	PSYC4802-20134	0.98	Block	exp	176	20131016.120838	diff	20	same	0	1373
44	19	 M	PSYC4802-20134	0.98	Block	exp	177	20131016.120841	same	20	same	1	939
44	19	 M	PSYC4802-20134	0.98	Block	exp	178	20131016.120844	same	60	same	1	1589
44	19	 M	PSYC4802-20134	0.98	Block	exp	179	20131016.120848	diff	20	diff	1	1026
44	19	 M	PSYC4802-20134	0.98	Block	exp	180	20131016.120851	diff	20	diff	1	1220
44	19	 M	PSYC4802-20134	0.98	Block	exp	181	20131016.120854	same	60	same	1	639
44	19	 M	PSYC4802-20134	0.98	Block	exp	182	20131016.120856	same	20	same	1	616
44	19	 M	PSYC4802-20134	0.98	Block	exp	183	20131016.120859	same	100	same	1	570
44	19	 M	PSYC4802-20134	0.98	Block	exp	184	20131016.120902	same	60	same	1	510
44	19	 M	PSYC4802-20134	0.98	Block	exp	185	20131016.120904	same	100	diff	0	405
44	19	 M	PSYC4802-20134	0.98	Block	exp	186	20131016.120906	same	20	same	1	522
44	19	 M	PSYC4802-20134	0.98	Block	exp	187	20131016.120909	diff	60	diff	1	552
44	19	 M	PSYC4802-20134	0.98	Block	exp	188	20131016.120911	same	100	same	1	476
44	19	 M	PSYC4802-20134	0.98	Block	exp	189	20131016.120914	diff	60	same	0	974
44	19	 M	PSYC4802-20134	0.98	Block	exp	190	20131016.120917	diff	60	diff	1	734
44	19	 M	PSYC4802-20134	0.98	Block	exp	191	20131016.120919	same	60	same	1	470
44	19	 M	PSYC4802-20134	0.98	Block	exp	192	20131016.120922	diff	60	diff	1	781
44	19	 M	PSYC4802-20134	0.98	Block	exp	193	20131016.120924	same	20	same	1	605
44	19	 M	PSYC4802-20134	0.98	Block	exp	194	20131016.120927	same	60	diff	0	652
44	19	 M	PSYC4802-20134	0.98	Block	exp	195	20131016.120930	diff	100	same	0	593
44	19	 M	PSYC4802-20134	0.98	Block	exp	196	20131016.120932	same	60	same	1	2269
44	19	 M	PSYC4802-20134	0.98	Block	exp	197	20131016.120937	diff	60	diff	1	897
44	19	 M	PSYC4802-20134	0.98	Block	exp	198	20131016.120940	same	60	same	1	1454
44	19	 M	PSYC4802-20134	0.98	Block	exp	199	20131016.120943	same	100	same	1	793
44	19	 M	PSYC4802-20134	0.98	Block	exp	200	20131016.120946	same	60	same	1	546
44	19	 M	PSYC4802-20134	0.98	Block	exp	201	20131016.121003	same	20	same	1	528
44	19	 M	PSYC4802-20134	0.98	Block	exp	202	20131016.121005	diff	100	diff	1	558
44	19	 M	PSYC4802-20134	0.98	Block	exp	203	20131016.121008	diff	60	same	0	622
44	19	 M	PSYC4802-20134	0.98	Block	exp	204	20131016.121011	diff	60	diff	1	1196
44	19	 M	PSYC4802-20134	0.98	Block	exp	205	20131016.121014	diff	20	same	0	587
44	19	 M	PSYC4802-20134	0.98	Block	exp	206	20131016.121016	same	60	same	1	605
44	19	 M	PSYC4802-20134	0.98	Block	exp	207	20131016.121019	same	20	same	1	452
44	19	 M	PSYC4802-20134	0.98	Block	exp	208	20131016.121021	diff	60	diff	1	722
44	19	 M	PSYC4802-20134	0.98	Block	exp	209	20131016.121024	diff	60	diff	1	869
44	19	 M	PSYC4802-20134	0.98	Block	exp	210	20131016.121027	diff	100	diff	1	675
44	19	 M	PSYC4802-20134	0.98	Block	exp	211	20131016.121029	diff	20	diff	1	727
44	19	 M	PSYC4802-20134	0.98	Block	exp	212	20131016.121032	same	60	same	1	669
44	19	 M	PSYC4802-20134	0.98	Block	exp	213	20131016.121035	same	100	same	1	2133
44	19	 M	PSYC4802-20134	0.98	Block	exp	214	20131016.121039	diff	20	diff	1	1032
44	19	 M	PSYC4802-20134	0.98	Block	exp	215	20131016.121042	same	20	same	1	505
44	19	 M	PSYC4802-20134	0.98	Block	exp	216	20131016.121044	diff	100	diff	1	1531
44	19	 M	PSYC4802-20134	0.98	Block	exp	217	20131016.121048	same	60	same	1	540
44	19	 M	PSYC4802-20134	0.98	Block	exp	218	20131016.121050	same	20	same	1	499
44	19	 M	PSYC4802-20134	0.98	Block	exp	219	20131016.121053	diff	100	same	0	985
44	19	 M	PSYC4802-20134	0.98	Block	exp	220	20131016.121056	diff	60	diff	1	792
44	19	 M	PSYC4802-20134	0.98	Block	exp	221	20131016.121059	same	20	same	1	523
44	19	 M	PSYC4802-20134	0.98	Block	exp	222	20131016.121101	diff	20	diff	1	639
44	19	 M	PSYC4802-20134	0.98	Block	exp	223	20131016.121104	same	100	diff	0	921
44	19	 M	PSYC4802-20134	0.98	Block	exp	224	20131016.121107	diff	100	diff	1	985
44	19	 M	PSYC4802-20134	0.98	Block	exp	225	20131016.121110	same	60	same	1	475
44	19	 M	PSYC4802-20134	0.98	Block	exp	226	20131016.121112	same	20	same	1	564
44	19	 M	PSYC4802-20134	0.98	Block	exp	227	20131016.121115	same	60	same	1	569
44	19	 M	PSYC4802-20134	0.98	Block	exp	228	20131016.121117	diff	60	same	0	833
44	19	 M	PSYC4802-20134	0.98	Block	exp	229	20131016.121122	same	100	diff	0	926
44	19	 M	PSYC4802-20134	0.98	Block	exp	230	20131016.121124	diff	100	diff	1	739
44	19	 M	PSYC4802-20134	0.98	Block	exp	231	20131016.121127	same	20	same	1	552
44	19	 M	PSYC4802-20134	0.98	Block	exp	232	20131016.121130	diff	100	diff	1	593
44	19	 M	PSYC4802-20134	0.98	Block	exp	233	20131016.121132	same	100	same	1	1197
44	19	 M	PSYC4802-20134	0.98	Block	exp	234	20131016.121135	same	100	same	1	1097
44	19	 M	PSYC4802-20134	0.98	Block	exp	235	20131016.121138	diff	60	diff	1	622
44	19	 M	PSYC4802-20134	0.98	Block	exp	236	20131016.121141	diff	100	diff	1	1735
44	19	 M	PSYC4802-20134	0.98	Block	exp	237	20131016.121145	same	60	same	1	657
44	19	 M	PSYC4802-20134	0.98	Block	exp	238	20131016.121147	diff	60	diff	1	651
44	19	 M	PSYC4802-20134	0.98	Block	exp	239	20131016.121150	diff	20	diff	1	787
44	19	 M	PSYC4802-20134	0.98	Block	exp	240	20131016.121153	diff	20	diff	1	733
44	19	 M	PSYC4802-20134	0.98	Block	exp	241	20131016.121155	same	100	same	1	1782
44	19	 M	PSYC4802-20134	0.98	Block	exp	242	20131016.121159	diff	60	diff	1	1249
44	19	 M	PSYC4802-20134	0.98	Block	exp	243	20131016.121202	diff	20	diff	1	704
44	19	 M	PSYC4802-20134	0.98	Block	exp	244	20131016.121205	diff	60	diff	1	1373
44	19	 M	PSYC4802-20134	0.98	Block	exp	245	20131016.121208	diff	20	diff	1	810
44	19	 M	PSYC4802-20134	0.98	Block	exp	246	20131016.121211	same	100	diff	0	1378
44	19	 M	PSYC4802-20134	0.98	Block	exp	247	20131016.121214	diff	100	same	0	1003
44	19	 M	PSYC4802-20134	0.98	Block	exp	248	20131016.121217	diff	100	diff	1	1419
44	19	 M	PSYC4802-20134	0.98	Block	exp	249	20131016.121221	diff	100	diff	1	1044
44	19	 M	PSYC4802-20134	0.98	Block	exp	250	20131016.121224	same	20	same	1	769
44	19	 M	PSYC4802-20134	0.98	Block	exp	251	20131016.121235	diff	100	same	0	1115
44	19	 M	PSYC4802-20134	0.98	Block	exp	252	20131016.121238	diff	20	diff	1	711
44	19	 M	PSYC4802-20134	0.98	Block	exp	253	20131016.121241	diff	60	diff	1	645
44	19	 M	PSYC4802-20134	0.98	Block	exp	254	20131016.121244	diff	20	same	0	657
44	19	 M	PSYC4802-20134	0.98	Block	exp	255	20131016.121247	diff	20	diff	1	646
44	19	 M	PSYC4802-20134	0.98	Block	exp	256	20131016.121250	same	20	same	1	628
44	19	 M	PSYC4802-20134	0.98	Block	exp	257	20131016.121252	same	100	same	1	652
44	19	 M	PSYC4802-20134	0.98	Block	exp	258	20131016.121255	diff	20	diff	1	581
44	19	 M	PSYC4802-20134	0.98	Block	exp	259	20131016.121258	diff	60	diff	1	657
44	19	 M	PSYC4802-20134	0.98	Block	exp	260	20131016.121300	same	20	same	1	628
44	19	 M	PSYC4802-20134	0.98	Block	exp	261	20131016.121303	diff	100	diff	1	581
44	19	 M	PSYC4802-20134	0.98	Block	exp	262	20131016.121305	same	60	same	1	727
44	19	 M	PSYC4802-20134	0.98	Block	exp	263	20131016.121308	same	60	diff	0	816
44	19	 M	PSYC4802-20134	0.98	Block	exp	264	20131016.121311	same	20	same	1	534
44	19	 M	PSYC4802-20134	0.98	Block	exp	265	20131016.121313	same	60	same	1	704
44	19	 M	PSYC4802-20134	0.98	Block	exp	266	20131016.121316	same	60	diff	0	687
44	19	 M	PSYC4802-20134	0.98	Block	exp	267	20131016.121319	diff	20	diff	1	1144
44	19	 M	PSYC4802-20134	0.98	Block	exp	268	20131016.121322	same	20	same	1	534
44	19	 M	PSYC4802-20134	0.98	Block	exp	269	20131016.121324	same	20	same	1	452
44	19	 M	PSYC4802-20134	0.98	Block	exp	270	20131016.121327	diff	20	diff	1	710
44	19	 M	PSYC4802-20134	0.98	Block	exp	271	20131016.121329	diff	20	diff	1	534
44	19	 M	PSYC4802-20134	0.98	Block	exp	272	20131016.121332	same	100	same	1	604
44	19	 M	PSYC4802-20134	0.98	Block	exp	273	20131016.121335	same	20	same	1	435
44	19	 M	PSYC4802-20134	0.98	Block	exp	274	20131016.121337	same	60	diff	0	575
44	19	 M	PSYC4802-20134	0.98	Block	exp	275	20131016.121340	diff	60	same	0	505
44	19	 M	PSYC4802-20134	0.98	Block	exp	276	20131016.121342	diff	60	diff	1	751
44	19	 M	PSYC4802-20134	0.98	Block	exp	277	20131016.121345	diff	100	same	0	751
44	19	 M	PSYC4802-20134	0.98	Block	exp	278	20131016.121348	diff	60	diff	1	962
44	19	 M	PSYC4802-20134	0.98	Block	exp	279	20131016.121351	diff	100	diff	1	1097
44	19	 M	PSYC4802-20134	0.98	Block	exp	280	20131016.121354	diff	60	diff	1	757
44	19	 M	PSYC4802-20134	0.98	Block	exp	281	20131016.121356	same	20	same	1	558
44	19	 M	PSYC4802-20134	0.98	Block	exp	282	20131016.121359	same	100	same	1	622
44	19	 M	PSYC4802-20134	0.98	Block	exp	283	20131016.121402	same	60	same	1	552
44	19	 M	PSYC4802-20134	0.98	Block	exp	284	20131016.121404	same	20	same	1	833
44	19	 M	PSYC4802-20134	0.98	Block	exp	285	20131016.121407	same	20	same	1	476
44	19	 M	PSYC4802-20134	0.98	Block	exp	286	20131016.121409	diff	20	diff	1	705
44	19	 M	PSYC4802-20134	0.98	Block	exp	287	20131016.121412	same	100	same	1	775
44	19	 M	PSYC4802-20134	0.98	Block	exp	288	20131016.121415	diff	20	diff	1	856
44	19	 M	PSYC4802-20134	0.98	Block	exp	289	20131016.121418	diff	60	diff	1	1009
44	19	 M	PSYC4802-20134	0.98	Block	exp	290	20131016.121421	same	60	same	1	599
44	19	 M	PSYC4802-20134	0.98	Block	exp	291	20131016.121423	diff	60	diff	1	1349
44	19	 M	PSYC4802-20134	0.98	Block	exp	292	20131016.121427	same	20	same	1	557
44	19	 M	PSYC4802-20134	0.98	Block	exp	293	20131016.121429	diff	20	same	0	892
44	19	 M	PSYC4802-20134	0.98	Block	exp	294	20131016.121432	diff	100	diff	1	1015
44	19	 M	PSYC4802-20134	0.98	Block	exp	295	20131016.121435	diff	60	same	0	780
44	19	 M	PSYC4802-20134	0.98	Block	exp	296	20131016.121438	diff	20	diff	1	810
44	19	 M	PSYC4802-20134	0.98	Block	exp	297	20131016.121441	same	100	diff	0	798
44	19	 M	PSYC4802-20134	0.98	Block	exp	298	20131016.121444	same	20	same	1	494
44	19	 M	PSYC4802-20134	0.98	Block	exp	299	20131016.121446	diff	60	diff	1	762
44	19	 M	PSYC4802-20134	0.98	Block	exp	300	20131016.121449	diff	100	diff	1	839
