Subject	Age	Sex	Experiment	Version	Block	TrialType	Trial	Timestamp	SameDiff	Rotation	Response	Acc	RT
57	19	M	PSYC4802-20134	0.98	Block	practice	1	20131021.105049	diff	60	diff	1	9340
57	19	M	PSYC4802-20134	0.98	Block	practice	2	20131021.105102	same	20	same	1	2257
57	19	M	PSYC4802-20134	0.98	Block	practice	3	20131021.105106	same	20	same	1	1389
57	19	M	PSYC4802-20134	0.98	Block	practice	4	20131021.105109	same	60	same	1	2344
57	19	M	PSYC4802-20134	0.98	Block	practice	5	20131021.105114	diff	20	diff	1	1677
57	19	M	PSYC4802-20134	0.98	Block	practice	6	20131021.105117	diff	60	diff	1	1653
57	19	M	PSYC4802-20134	0.98	Block	practice	7	20131021.105121	same	20	same	1	1823
57	19	M	PSYC4802-20134	0.98	Block	practice	8	20131021.105125	same	100	diff	0	4852
57	19	M	PSYC4802-20134	0.98	Block	practice	9	20131021.105132	same	60	same	1	5402
57	19	M	PSYC4802-20134	0.98	Block	practice	10	20131021.105139	same	20	same	1	3382
57	19	M	PSYC4802-20134	0.98	Block	practice	11	20131021.105144	diff	100	diff	1	4688
57	19	M	PSYC4802-20134	0.98	Block	practice	12	20131021.105151	diff	60	diff	1	1242
57	19	M	PSYC4802-20134	0.98	Block	practice	13	20131021.105154	same	100	same	1	2327
57	19	M	PSYC4802-20134	0.98	Block	practice	14	20131021.105159	diff	100	same	0	9604
57	19	M	PSYC4802-20134	0.98	Block	practice	15	20131021.105210	same	100	same	1	1278
57	19	M	PSYC4802-20134	0.98	Block	practice	16	20131021.105214	same	60	same	1	1207
57	19	M	PSYC4802-20134	0.98	Block	practice	17	20131021.105217	same	20	same	1	4711
57	19	M	PSYC4802-20134	0.98	Block	practice	18	20131021.105224	diff	100	diff	1	3797
57	19	M	PSYC4802-20134	0.98	Block	practice	19	20131021.105229	diff	20	diff	1	4172
57	19	M	PSYC4802-20134	0.98	Block	practice	20	20131021.105235	diff	60	diff	1	2754
57	19	M	PSYC4802-20134	0.98	Block	practice	21	20131021.105240	diff	20	diff	1	3920
57	19	M	PSYC4802-20134	0.98	Block	practice	22	20131021.105246	diff	100	same	0	2749
57	19	M	PSYC4802-20134	0.98	Block	practice	23	20131021.105251	diff	20	diff	1	3527
57	19	M	PSYC4802-20134	0.98	Block	practice	24	20131021.105256	same	60	same	1	2959
57	19	M	PSYC4802-20134	0.98	Block	practice	25	20131021.105301	diff	20	diff	1	1946
57	19	M	PSYC4802-20134	0.98	Block	practice	26	20131021.105305	diff	60	same	0	1693
57	19	M	PSYC4802-20134	0.98	Block	practice	27	20131021.105309	diff	100	diff	1	7453
57	19	M	PSYC4802-20134	0.98	Block	practice	28	20131021.105318	same	60	same	1	2701
57	19	M	PSYC4802-20134	0.98	Block	practice	29	20131021.105323	same	100	same	1	4348
57	19	M	PSYC4802-20134	0.98	Block	practice	30	20131021.105329	same	100	same	1	3410
57	19	M	PSYC4802-20134	0.98	Block	exp	31	20131021.105335	diff	100	diff	1	2444
57	19	M	PSYC4802-20134	0.98	Block	exp	32	20131021.105339	diff	20	diff	1	2625
57	19	M	PSYC4802-20134	0.98	Block	exp	33	20131021.105344	diff	60	same	0	1108
57	19	M	PSYC4802-20134	0.98	Block	exp	34	20131021.105347	diff	20	diff	1	1184
57	19	M	PSYC4802-20134	0.98	Block	exp	35	20131021.105350	same	100	same	1	3123
57	19	M	PSYC4802-20134	0.98	Block	exp	36	20131021.105355	diff	100	diff	1	990
57	19	M	PSYC4802-20134	0.98	Block	exp	37	20131021.105358	diff	20	same	0	1331
57	19	M	PSYC4802-20134	0.98	Block	exp	38	20131021.105401	diff	60	diff	1	1553
57	19	M	PSYC4802-20134	0.98	Block	exp	39	20131021.105405	diff	100	diff	1	1758
57	19	M	PSYC4802-20134	0.98	Block	exp	40	20131021.105409	diff	100	diff	1	1688
57	19	M	PSYC4802-20134	0.98	Block	exp	41	20131021.105412	diff	60	diff	1	1172
57	19	M	PSYC4802-20134	0.98	Block	exp	42	20131021.105415	same	20	same	1	1037
57	19	M	PSYC4802-20134	0.98	Block	exp	43	20131021.105418	same	100	same	1	1184
57	19	M	PSYC4802-20134	0.98	Block	exp	44	20131021.105422	same	20	same	1	663
57	19	M	PSYC4802-20134	0.98	Block	exp	45	20131021.105424	same	20	same	1	897
57	19	M	PSYC4802-20134	0.98	Block	exp	46	20131021.105427	same	100	diff	0	1916
57	19	M	PSYC4802-20134	0.98	Block	exp	47	20131021.105431	same	60	same	1	3727
57	19	M	PSYC4802-20134	0.98	Block	exp	48	20131021.105437	diff	60	diff	1	762
57	19	M	PSYC4802-20134	0.98	Block	exp	49	20131021.105439	diff	20	diff	1	2602
57	19	M	PSYC4802-20134	0.98	Block	exp	50	20131021.105444	diff	20	diff	1	2737
57	19	M	PSYC4802-20134	0.98	Block	exp	51	20131021.105519	same	60	same	1	3545
57	19	M	PSYC4802-20134	0.98	Block	exp	52	20131021.105525	same	20	same	1	1694
57	19	M	PSYC4802-20134	0.98	Block	exp	53	20131021.105528	diff	60	diff	1	1243
57	19	M	PSYC4802-20134	0.98	Block	exp	54	20131021.105532	diff	100	same	0	1565
57	19	M	PSYC4802-20134	0.98	Block	exp	55	20131021.105535	diff	100	diff	1	1331
57	19	M	PSYC4802-20134	0.98	Block	exp	56	20131021.105539	same	100	same	1	1008
57	19	M	PSYC4802-20134	0.98	Block	exp	57	20131021.105542	same	20	same	1	2572
57	19	M	PSYC4802-20134	0.98	Block	exp	58	20131021.105546	diff	60	diff	1	1003
57	19	M	PSYC4802-20134	0.98	Block	exp	59	20131021.105549	diff	60	diff	1	1846
57	19	M	PSYC4802-20134	0.98	Block	exp	60	20131021.105553	diff	20	same	0	991
57	19	M	PSYC4802-20134	0.98	Block	exp	61	20131021.105556	same	100	same	1	1682
57	19	M	PSYC4802-20134	0.98	Block	exp	62	20131021.105600	same	100	same	1	1079
57	19	M	PSYC4802-20134	0.98	Block	exp	63	20131021.105603	same	60	same	1	598
57	19	M	PSYC4802-20134	0.98	Block	exp	64	20131021.105605	same	20	same	1	522
57	19	M	PSYC4802-20134	0.98	Block	exp	65	20131021.105608	same	100	same	1	1172
57	19	M	PSYC4802-20134	0.98	Block	exp	66	20131021.105611	diff	100	diff	1	1618
57	19	M	PSYC4802-20134	0.98	Block	exp	67	20131021.105615	diff	60	diff	1	1084
57	19	M	PSYC4802-20134	0.98	Block	exp	68	20131021.105618	diff	20	diff	1	2889
57	19	M	PSYC4802-20134	0.98	Block	exp	69	20131021.105623	diff	60	same	0	3423
57	19	M	PSYC4802-20134	0.98	Block	exp	70	20131021.105628	diff	60	same	0	1671
57	19	M	PSYC4802-20134	0.98	Block	exp	71	20131021.105632	diff	20	diff	1	1184
57	19	M	PSYC4802-20134	0.98	Block	exp	72	20131021.105635	same	100	same	1	2368
57	19	M	PSYC4802-20134	0.98	Block	exp	73	20131021.105639	diff	100	diff	1	1811
57	19	M	PSYC4802-20134	0.98	Block	exp	74	20131021.105643	same	100	same	1	908
57	19	M	PSYC4802-20134	0.98	Block	exp	75	20131021.105646	same	60	same	1	1957
57	19	M	PSYC4802-20134	0.98	Block	exp	76	20131021.105650	same	20	same	1	1008
57	19	M	PSYC4802-20134	0.98	Block	exp	77	20131021.105653	diff	20	diff	1	973
57	19	M	PSYC4802-20134	0.98	Block	exp	78	20131021.105656	diff	20	diff	1	1032
57	19	M	PSYC4802-20134	0.98	Block	exp	79	20131021.105659	same	20	same	1	768
57	19	M	PSYC4802-20134	0.98	Block	exp	80	20131021.105702	same	60	same	1	879
57	19	M	PSYC4802-20134	0.98	Block	exp	81	20131021.105704	diff	100	diff	1	2145
57	19	M	PSYC4802-20134	0.98	Block	exp	82	20131021.105709	same	60	same	1	2098
57	19	M	PSYC4802-20134	0.98	Block	exp	83	20131021.105713	same	20	same	1	622
57	19	M	PSYC4802-20134	0.98	Block	exp	84	20131021.105715	diff	100	diff	1	1254
57	19	M	PSYC4802-20134	0.98	Block	exp	85	20131021.105718	same	20	same	1	874
57	19	M	PSYC4802-20134	0.98	Block	exp	86	20131021.105721	diff	20	diff	1	903
57	19	M	PSYC4802-20134	0.98	Block	exp	87	20131021.105724	diff	100	diff	1	1624
57	19	M	PSYC4802-20134	0.98	Block	exp	88	20131021.105728	same	100	same	1	1529
57	19	M	PSYC4802-20134	0.98	Block	exp	89	20131021.105731	same	60	diff	0	827
57	19	M	PSYC4802-20134	0.98	Block	exp	90	20131021.105734	same	100	diff	0	1353
57	19	M	PSYC4802-20134	0.98	Block	exp	91	20131021.105738	diff	100	diff	1	1805
57	19	M	PSYC4802-20134	0.98	Block	exp	92	20131021.105741	diff	100	diff	1	2901
57	19	M	PSYC4802-20134	0.98	Block	exp	93	20131021.105746	same	60	same	1	1295
57	19	M	PSYC4802-20134	0.98	Block	exp	94	20131021.105749	same	20	same	1	809
57	19	M	PSYC4802-20134	0.98	Block	exp	95	20131021.105752	diff	60	diff	1	1963
57	19	M	PSYC4802-20134	0.98	Block	exp	96	20131021.105756	diff	100	diff	1	2455
57	19	M	PSYC4802-20134	0.98	Block	exp	97	20131021.105801	diff	20	diff	1	2075
57	19	M	PSYC4802-20134	0.98	Block	exp	98	20131021.105805	diff	100	diff	1	2878
57	19	M	PSYC4802-20134	0.98	Block	exp	99	20131021.105810	same	100	same	1	1782
57	19	M	PSYC4802-20134	0.98	Block	exp	100	20131021.105813	diff	20	diff	1	949
57	19	M	PSYC4802-20134	0.98	Block	exp	101	20131021.105851	diff	20	diff	1	674
57	19	M	PSYC4802-20134	0.98	Block	exp	102	20131021.105854	diff	60	diff	1	2256
57	19	M	PSYC4802-20134	0.98	Block	exp	103	20131021.105858	diff	100	diff	1	2162
57	19	M	PSYC4802-20134	0.98	Block	exp	104	20131021.105902	same	20	same	1	780
57	19	M	PSYC4802-20134	0.98	Block	exp	105	20131021.105905	same	100	same	1	1213
57	19	M	PSYC4802-20134	0.98	Block	exp	106	20131021.105908	diff	100	same	0	4295
57	19	M	PSYC4802-20134	0.98	Block	exp	107	20131021.105914	diff	60	diff	1	745
57	19	M	PSYC4802-20134	0.98	Block	exp	108	20131021.105917	same	60	same	1	2585
57	19	M	PSYC4802-20134	0.98	Block	exp	109	20131021.105922	same	60	same	1	1119
57	19	M	PSYC4802-20134	0.98	Block	exp	110	20131021.105925	same	100	same	1	1476
57	19	M	PSYC4802-20134	0.98	Block	exp	111	20131021.105928	diff	100	diff	1	2385
57	19	M	PSYC4802-20134	0.98	Block	exp	112	20131021.105933	same	60	diff	0	1963
57	19	M	PSYC4802-20134	0.98	Block	exp	113	20131021.105936	same	100	same	1	1383
57	19	M	PSYC4802-20134	0.98	Block	exp	114	20131021.105940	diff	100	diff	1	5303
57	19	M	PSYC4802-20134	0.98	Block	exp	115	20131021.105947	same	20	same	1	738
57	19	M	PSYC4802-20134	0.98	Block	exp	116	20131021.105950	diff	20	diff	1	1770
57	19	M	PSYC4802-20134	0.98	Block	exp	117	20131021.105954	diff	60	diff	1	1887
57	19	M	PSYC4802-20134	0.98	Block	exp	118	20131021.105957	same	60	diff	0	4459
57	19	M	PSYC4802-20134	0.98	Block	exp	119	20131021.110004	diff	100	diff	1	3886
57	19	M	PSYC4802-20134	0.98	Block	exp	120	20131021.110010	same	20	same	1	756
57	19	M	PSYC4802-20134	0.98	Block	exp	121	20131021.110012	same	100	diff	0	1231
57	19	M	PSYC4802-20134	0.98	Block	exp	122	20131021.110016	diff	20	diff	1	1342
57	19	M	PSYC4802-20134	0.98	Block	exp	123	20131021.110019	diff	100	diff	1	1091
57	19	M	PSYC4802-20134	0.98	Block	exp	124	20131021.110022	same	100	same	1	1530
57	19	M	PSYC4802-20134	0.98	Block	exp	125	20131021.110026	diff	20	diff	1	956
57	19	M	PSYC4802-20134	0.98	Block	exp	126	20131021.110029	same	60	same	1	1014
57	19	M	PSYC4802-20134	0.98	Block	exp	127	20131021.110032	same	60	same	1	1512
57	19	M	PSYC4802-20134	0.98	Block	exp	128	20131021.110035	diff	20	diff	1	1278
57	19	M	PSYC4802-20134	0.98	Block	exp	129	20131021.110038	diff	60	diff	1	692
57	19	M	PSYC4802-20134	0.98	Block	exp	130	20131021.110041	same	100	same	1	3346
57	19	M	PSYC4802-20134	0.98	Block	exp	131	20131021.110046	same	20	same	1	1196
57	19	M	PSYC4802-20134	0.98	Block	exp	132	20131021.110050	same	100	same	1	832
57	19	M	PSYC4802-20134	0.98	Block	exp	133	20131021.110052	same	100	diff	0	692
57	19	M	PSYC4802-20134	0.98	Block	exp	134	20131021.110055	same	100	diff	0	727
57	19	M	PSYC4802-20134	0.98	Block	exp	135	20131021.110058	same	20	same	1	833
57	19	M	PSYC4802-20134	0.98	Block	exp	136	20131021.110101	diff	100	diff	1	1102
57	19	M	PSYC4802-20134	0.98	Block	exp	137	20131021.110104	same	60	same	1	926
57	19	M	PSYC4802-20134	0.98	Block	exp	138	20131021.110107	same	20	same	1	674
57	19	M	PSYC4802-20134	0.98	Block	exp	139	20131021.110109	same	20	same	1	703
57	19	M	PSYC4802-20134	0.98	Block	exp	140	20131021.110112	diff	60	diff	1	1453
57	19	M	PSYC4802-20134	0.98	Block	exp	141	20131021.110115	diff	60	diff	1	1161
57	19	M	PSYC4802-20134	0.98	Block	exp	142	20131021.110119	diff	60	same	0	1196
57	19	M	PSYC4802-20134	0.98	Block	exp	143	20131021.110122	diff	100	diff	1	2227
57	19	M	PSYC4802-20134	0.98	Block	exp	144	20131021.110126	same	20	same	1	633
57	19	M	PSYC4802-20134	0.98	Block	exp	145	20131021.110129	same	20	diff	0	639
57	19	M	PSYC4802-20134	0.98	Block	exp	146	20131021.110131	diff	20	diff	1	3604
57	19	M	PSYC4802-20134	0.98	Block	exp	147	20131021.110137	same	60	same	1	1805
57	19	M	PSYC4802-20134	0.98	Block	exp	148	20131021.110140	same	100	same	1	1476
57	19	M	PSYC4802-20134	0.98	Block	exp	149	20131021.110144	diff	100	diff	1	2913
57	19	M	PSYC4802-20134	0.98	Block	exp	150	20131021.110149	same	20	same	1	1477
57	19	M	PSYC4802-20134	0.98	Block	exp	151	20131021.110208	diff	60	diff	1	1096
57	19	M	PSYC4802-20134	0.98	Block	exp	152	20131021.110212	diff	100	diff	1	2385
57	19	M	PSYC4802-20134	0.98	Block	exp	153	20131021.110216	same	100	same	1	2550
57	19	M	PSYC4802-20134	0.98	Block	exp	154	20131021.110220	same	20	same	1	669
57	19	M	PSYC4802-20134	0.98	Block	exp	155	20131021.110223	same	60	same	1	2074
57	19	M	PSYC4802-20134	0.98	Block	exp	156	20131021.110227	diff	100	diff	1	1899
57	19	M	PSYC4802-20134	0.98	Block	exp	157	20131021.110231	same	100	same	1	1523
57	19	M	PSYC4802-20134	0.98	Block	exp	158	20131021.110235	diff	20	diff	1	2883
57	19	M	PSYC4802-20134	0.98	Block	exp	159	20131021.110239	same	20	same	1	697
57	19	M	PSYC4802-20134	0.98	Block	exp	160	20131021.110242	same	100	same	1	1412
57	19	M	PSYC4802-20134	0.98	Block	exp	161	20131021.110245	same	20	same	1	738
57	19	M	PSYC4802-20134	0.98	Block	exp	162	20131021.110248	same	60	same	1	803
57	19	M	PSYC4802-20134	0.98	Block	exp	163	20131021.110251	same	60	same	1	1682
57	19	M	PSYC4802-20134	0.98	Block	exp	164	20131021.110255	same	60	same	1	937
57	19	M	PSYC4802-20134	0.98	Block	exp	165	20131021.110258	same	60	same	1	750
57	19	M	PSYC4802-20134	0.98	Block	exp	166	20131021.110300	diff	100	diff	1	1986
57	19	M	PSYC4802-20134	0.98	Block	exp	167	20131021.110304	same	60	same	1	697
57	19	M	PSYC4802-20134	0.98	Block	exp	168	20131021.110307	diff	60	diff	1	804
57	19	M	PSYC4802-20134	0.98	Block	exp	169	20131021.110310	diff	60	diff	1	1120
57	19	M	PSYC4802-20134	0.98	Block	exp	170	20131021.110313	diff	20	diff	1	909
57	19	M	PSYC4802-20134	0.98	Block	exp	171	20131021.110316	diff	20	diff	1	1348
57	19	M	PSYC4802-20134	0.98	Block	exp	172	20131021.110319	diff	60	diff	1	1530
57	19	M	PSYC4802-20134	0.98	Block	exp	173	20131021.110323	diff	20	diff	1	803
57	19	M	PSYC4802-20134	0.98	Block	exp	174	20131021.110325	same	100	diff	0	739
57	19	M	PSYC4802-20134	0.98	Block	exp	175	20131021.110328	diff	100	diff	1	2549
57	19	M	PSYC4802-20134	0.98	Block	exp	176	20131021.110333	diff	100	diff	1	1108
57	19	M	PSYC4802-20134	0.98	Block	exp	177	20131021.110336	same	20	same	1	867
57	19	M	PSYC4802-20134	0.98	Block	exp	178	20131021.110339	same	20	same	1	657
57	19	M	PSYC4802-20134	0.98	Block	exp	179	20131021.110341	diff	20	diff	1	932
57	19	M	PSYC4802-20134	0.98	Block	exp	180	20131021.110344	same	20	same	1	815
57	19	M	PSYC4802-20134	0.98	Block	exp	181	20131021.110347	same	60	same	1	1465
57	19	M	PSYC4802-20134	0.98	Block	exp	182	20131021.110351	same	60	same	1	692
57	19	M	PSYC4802-20134	0.98	Block	exp	183	20131021.110353	same	20	same	1	845
57	19	M	PSYC4802-20134	0.98	Block	exp	184	20131021.110356	same	20	same	1	575
57	19	M	PSYC4802-20134	0.98	Block	exp	185	20131021.110359	same	100	same	1	1512
57	19	M	PSYC4802-20134	0.98	Block	exp	186	20131021.110402	diff	20	diff	1	2532
57	19	M	PSYC4802-20134	0.98	Block	exp	187	20131021.110407	diff	100	diff	1	1383
57	19	M	PSYC4802-20134	0.98	Block	exp	188	20131021.110410	diff	20	diff	1	1483
57	19	M	PSYC4802-20134	0.98	Block	exp	189	20131021.110414	diff	60	diff	1	2415
57	19	M	PSYC4802-20134	0.98	Block	exp	190	20131021.110418	diff	60	diff	1	2174
57	19	M	PSYC4802-20134	0.98	Block	exp	191	20131021.110422	same	100	same	1	1998
57	19	M	PSYC4802-20134	0.98	Block	exp	192	20131021.110426	same	100	same	1	2256
57	19	M	PSYC4802-20134	0.98	Block	exp	193	20131021.110430	same	60	same	1	967
57	19	M	PSYC4802-20134	0.98	Block	exp	194	20131021.110433	same	20	same	1	516
57	19	M	PSYC4802-20134	0.98	Block	exp	195	20131021.110436	diff	60	diff	1	2256
57	19	M	PSYC4802-20134	0.98	Block	exp	196	20131021.110440	same	60	same	1	744
57	19	M	PSYC4802-20134	0.98	Block	exp	197	20131021.110443	diff	20	diff	1	2104
57	19	M	PSYC4802-20134	0.98	Block	exp	198	20131021.110447	same	100	same	1	1219
57	19	M	PSYC4802-20134	0.98	Block	exp	199	20131021.110450	same	20	same	1	575
57	19	M	PSYC4802-20134	0.98	Block	exp	200	20131021.110453	diff	20	diff	1	862
57	19	M	PSYC4802-20134	0.98	Block	exp	201	20131021.110509	same	100	same	1	1712
57	19	M	PSYC4802-20134	0.98	Block	exp	202	20131021.110513	same	60	same	1	903
57	19	M	PSYC4802-20134	0.98	Block	exp	203	20131021.110516	diff	60	diff	1	757
57	19	M	PSYC4802-20134	0.98	Block	exp	204	20131021.110518	same	20	same	1	2273
57	19	M	PSYC4802-20134	0.98	Block	exp	205	20131021.110523	same	60	same	1	1436
57	19	M	PSYC4802-20134	0.98	Block	exp	206	20131021.110526	same	60	same	1	932
57	19	M	PSYC4802-20134	0.98	Block	exp	207	20131021.110529	same	20	same	1	1266
57	19	M	PSYC4802-20134	0.98	Block	exp	208	20131021.110532	diff	60	diff	1	978
57	19	M	PSYC4802-20134	0.98	Block	exp	209	20131021.110535	same	60	same	1	1026
57	19	M	PSYC4802-20134	0.98	Block	exp	210	20131021.110538	same	20	same	1	1805
57	19	M	PSYC4802-20134	0.98	Block	exp	211	20131021.110542	same	100	same	1	1085
57	19	M	PSYC4802-20134	0.98	Block	exp	212	20131021.110545	diff	100	diff	1	1846
57	19	M	PSYC4802-20134	0.98	Block	exp	213	20131021.110549	same	20	same	1	938
57	19	M	PSYC4802-20134	0.98	Block	exp	214	20131021.110552	same	60	same	1	809
57	19	M	PSYC4802-20134	0.98	Block	exp	215	20131021.110555	same	100	diff	0	1753
57	19	M	PSYC4802-20134	0.98	Block	exp	216	20131021.110558	same	100	same	1	1331
57	19	M	PSYC4802-20134	0.98	Block	exp	217	20131021.110602	diff	60	diff	1	2309
57	19	M	PSYC4802-20134	0.98	Block	exp	218	20131021.110606	diff	60	diff	1	1301
57	19	M	PSYC4802-20134	0.98	Block	exp	219	20131021.110609	diff	60	diff	1	1612
57	19	M	PSYC4802-20134	0.98	Block	exp	220	20131021.110613	same	100	same	1	1759
57	19	M	PSYC4802-20134	0.98	Block	exp	221	20131021.110617	diff	100	diff	1	850
57	19	M	PSYC4802-20134	0.98	Block	exp	222	20131021.110619	diff	60	diff	1	1066
57	19	M	PSYC4802-20134	0.98	Block	exp	223	20131021.110622	same	60	same	1	1635
57	19	M	PSYC4802-20134	0.98	Block	exp	224	20131021.110626	diff	100	diff	1	1887
57	19	M	PSYC4802-20134	0.98	Block	exp	225	20131021.110630	diff	60	diff	1	1401
57	19	M	PSYC4802-20134	0.98	Block	exp	226	20131021.110633	diff	20	diff	1	1155
57	19	M	PSYC4802-20134	0.98	Block	exp	227	20131021.110636	diff	20	diff	1	3716
57	19	M	PSYC4802-20134	0.98	Block	exp	228	20131021.110642	diff	60	diff	1	838
57	19	M	PSYC4802-20134	0.98	Block	exp	229	20131021.110645	same	100	diff	0	1957
57	19	M	PSYC4802-20134	0.98	Block	exp	230	20131021.110649	same	20	same	1	804
57	19	M	PSYC4802-20134	0.98	Block	exp	231	20131021.110652	diff	100	diff	1	1407
57	19	M	PSYC4802-20134	0.98	Block	exp	232	20131021.110655	diff	20	diff	1	2121
57	19	M	PSYC4802-20134	0.98	Block	exp	233	20131021.110659	diff	60	diff	1	1477
57	19	M	PSYC4802-20134	0.98	Block	exp	234	20131021.110702	same	20	same	1	955
57	19	M	PSYC4802-20134	0.98	Block	exp	235	20131021.110705	diff	100	diff	1	938
57	19	M	PSYC4802-20134	0.98	Block	exp	236	20131021.110708	same	20	same	1	710
57	19	M	PSYC4802-20134	0.98	Block	exp	237	20131021.110711	same	20	same	1	774
57	19	M	PSYC4802-20134	0.98	Block	exp	238	20131021.110714	same	20	same	1	546
57	19	M	PSYC4802-20134	0.98	Block	exp	239	20131021.110716	diff	60	diff	1	1600
57	19	M	PSYC4802-20134	0.98	Block	exp	240	20131021.110720	same	60	same	1	757
57	19	M	PSYC4802-20134	0.98	Block	exp	241	20131021.110723	diff	20	diff	1	1184
57	19	M	PSYC4802-20134	0.98	Block	exp	242	20131021.110726	same	60	same	1	628
57	19	M	PSYC4802-20134	0.98	Block	exp	243	20131021.110728	diff	100	diff	1	1448
57	19	M	PSYC4802-20134	0.98	Block	exp	244	20131021.110732	same	20	same	1	586
57	19	M	PSYC4802-20134	0.98	Block	exp	245	20131021.110734	diff	100	diff	1	1636
57	19	M	PSYC4802-20134	0.98	Block	exp	246	20131021.110738	diff	20	diff	1	2314
57	19	M	PSYC4802-20134	0.98	Block	exp	247	20131021.110742	same	60	same	1	586
57	19	M	PSYC4802-20134	0.98	Block	exp	248	20131021.110745	same	60	same	1	1530
57	19	M	PSYC4802-20134	0.98	Block	exp	249	20131021.110748	diff	20	diff	1	2157
57	19	M	PSYC4802-20134	0.98	Block	exp	250	20131021.110752	diff	20	diff	1	762
57	19	M	PSYC4802-20134	0.98	Block	exp	251	20131021.110807	same	100	same	1	1236
57	19	M	PSYC4802-20134	0.98	Block	exp	252	20131021.110810	diff	60	diff	1	1360
57	19	M	PSYC4802-20134	0.98	Block	exp	253	20131021.110814	diff	20	diff	1	4401
57	19	M	PSYC4802-20134	0.98	Block	exp	254	20131021.110820	diff	20	diff	1	1600
57	19	M	PSYC4802-20134	0.98	Block	exp	255	20131021.110824	diff	20	diff	1	1489
57	19	M	PSYC4802-20134	0.98	Block	exp	256	20131021.110827	diff	60	diff	1	2197
57	19	M	PSYC4802-20134	0.98	Block	exp	257	20131021.110831	same	100	same	1	5179
57	19	M	PSYC4802-20134	0.98	Block	exp	258	20131021.110839	same	60	same	1	3065
57	19	M	PSYC4802-20134	0.98	Block	exp	259	20131021.110844	diff	20	diff	1	1143
57	19	M	PSYC4802-20134	0.98	Block	exp	260	20131021.110847	diff	60	diff	1	4120
57	19	M	PSYC4802-20134	0.98	Block	exp	261	20131021.110853	same	60	same	1	675
57	19	M	PSYC4802-20134	0.98	Block	exp	262	20131021.110855	same	100	same	1	1535
57	19	M	PSYC4802-20134	0.98	Block	exp	263	20131021.110859	diff	100	diff	1	2573
57	19	M	PSYC4802-20134	0.98	Block	exp	264	20131021.110904	diff	60	diff	1	1904
57	19	M	PSYC4802-20134	0.98	Block	exp	265	20131021.110907	same	20	same	1	739
57	19	M	PSYC4802-20134	0.98	Block	exp	266	20131021.110910	diff	100	diff	1	844
57	19	M	PSYC4802-20134	0.98	Block	exp	267	20131021.110913	diff	100	diff	1	908
57	19	M	PSYC4802-20134	0.98	Block	exp	268	20131021.110916	same	60	same	1	950
57	19	M	PSYC4802-20134	0.98	Block	exp	269	20131021.110919	same	60	same	1	1038
57	19	M	PSYC4802-20134	0.98	Block	exp	270	20131021.110922	diff	100	diff	1	1635
57	19	M	PSYC4802-20134	0.98	Block	exp	271	20131021.110925	diff	20	diff	1	721
57	19	M	PSYC4802-20134	0.98	Block	exp	272	20131021.110928	diff	60	same	0	4559
57	19	M	PSYC4802-20134	0.98	Block	exp	273	20131021.110935	same	20	same	1	609
57	19	M	PSYC4802-20134	0.98	Block	exp	274	20131021.110937	same	60	same	1	792
57	19	M	PSYC4802-20134	0.98	Block	exp	275	20131021.110940	diff	60	diff	1	2074
57	19	M	PSYC4802-20134	0.98	Block	exp	276	20131021.110944	diff	20	diff	1	1641
57	19	M	PSYC4802-20134	0.98	Block	exp	277	20131021.110948	diff	20	diff	1	1431
57	19	M	PSYC4802-20134	0.98	Block	exp	278	20131021.110951	diff	100	diff	1	2619
57	19	M	PSYC4802-20134	0.98	Block	exp	279	20131021.110956	diff	60	diff	1	996
57	19	M	PSYC4802-20134	0.98	Block	exp	280	20131021.110959	same	20	same	1	767
57	19	M	PSYC4802-20134	0.98	Block	exp	281	20131021.111001	same	100	diff	0	1295
57	19	M	PSYC4802-20134	0.98	Block	exp	282	20131021.111005	same	100	same	1	1729
57	19	M	PSYC4802-20134	0.98	Block	exp	283	20131021.111008	diff	100	diff	1	1851
57	19	M	PSYC4802-20134	0.98	Block	exp	284	20131021.111012	diff	60	diff	1	990
57	19	M	PSYC4802-20134	0.98	Block	exp	285	20131021.111015	same	60	same	1	1336
57	19	M	PSYC4802-20134	0.98	Block	exp	286	20131021.111018	diff	60	diff	1	1219
57	19	M	PSYC4802-20134	0.98	Block	exp	287	20131021.111022	diff	20	diff	1	967
57	19	M	PSYC4802-20134	0.98	Block	exp	288	20131021.111025	same	60	diff	0	2901
57	19	M	PSYC4802-20134	0.98	Block	exp	289	20131021.111029	same	100	same	1	2292
57	19	M	PSYC4802-20134	0.98	Block	exp	290	20131021.111034	diff	20	diff	1	791
57	19	M	PSYC4802-20134	0.98	Block	exp	291	20131021.111036	same	100	same	1	1893
57	19	M	PSYC4802-20134	0.98	Block	exp	292	20131021.111040	same	60	same	1	1131
57	19	M	PSYC4802-20134	0.98	Block	exp	293	20131021.111043	diff	60	diff	1	1829
57	19	M	PSYC4802-20134	0.98	Block	exp	294	20131021.111047	same	100	same	1	1196
57	19	M	PSYC4802-20134	0.98	Block	exp	295	20131021.111050	same	100	diff	0	1747
57	19	M	PSYC4802-20134	0.98	Block	exp	296	20131021.111054	diff	100	diff	1	2831
57	19	M	PSYC4802-20134	0.98	Block	exp	297	20131021.111059	same	60	same	1	932
57	19	M	PSYC4802-20134	0.98	Block	exp	298	20131021.111102	same	20	same	1	656
57	19	M	PSYC4802-20134	0.98	Block	exp	299	20131021.111105	diff	100	diff	1	1524
57	19	M	PSYC4802-20134	0.98	Block	exp	300	20131021.111108	diff	20	diff	1	1324
