Subject	Age	Sex	Experiment	Version	Block	TrialType	Trial	Timestamp	SameDiff	Rotation	Response	Acc	RT
97	19	F	PSYC4802-20134	0.98	Block	practice	1	20131111.082516	same	60	diff	0	15757
97	19	F	PSYC4802-20134	0.98	Block	practice	2	20131111.082535	same	100	same	1	22126
97	19	F	PSYC4802-20134	0.98	Block	practice	3	20131111.082559	same	60	diff	0	11269
97	19	F	PSYC4802-20134	0.98	Block	practice	4	20131111.082612	same	20	same	1	3247
97	19	F	PSYC4802-20134	0.98	Block	practice	5	20131111.082618	diff	20	diff	1	18428
97	19	F	PSYC4802-20134	0.98	Block	practice	6	20131111.082638	diff	60	diff	1	4020
97	19	F	PSYC4802-20134	0.98	Block	practice	7	20131111.082644	same	100	diff	0	11163
97	19	F	PSYC4802-20134	0.98	Block	practice	8	20131111.082657	diff	100	diff	1	6458
97	19	F	PSYC4802-20134	0.98	Block	practice	9	20131111.082706	same	20	same	1	2814
97	19	F	PSYC4802-20134	0.98	Block	practice	10	20131111.082711	diff	60	diff	1	10905
97	19	F	PSYC4802-20134	0.98	Block	practice	11	20131111.082724	same	20	same	1	1993
97	19	F	PSYC4802-20134	0.98	Block	practice	12	20131111.082728	diff	20	diff	1	7449
97	19	F	PSYC4802-20134	0.98	Block	practice	13	20131111.082737	diff	60	diff	1	2462
97	19	F	PSYC4802-20134	0.98	Block	practice	14	20131111.082741	same	60	diff	0	2268
97	19	F	PSYC4802-20134	0.98	Block	practice	15	20131111.082746	same	20	same	1	2386
97	19	F	PSYC4802-20134	0.98	Block	practice	16	20131111.082750	same	100	same	1	6827
97	19	F	PSYC4802-20134	0.98	Block	practice	17	20131111.082759	diff	20	diff	1	2239
97	19	F	PSYC4802-20134	0.98	Block	practice	18	20131111.082803	diff	60	diff	1	2069
97	19	F	PSYC4802-20134	0.98	Block	practice	19	20131111.082807	same	20	same	1	1595
97	19	F	PSYC4802-20134	0.98	Block	practice	20	20131111.082811	diff	100	diff	1	2620
97	19	F	PSYC4802-20134	0.98	Block	practice	21	20131111.082815	diff	100	diff	1	2034
97	19	F	PSYC4802-20134	0.98	Block	practice	22	20131111.082820	diff	100	diff	1	1278
97	19	F	PSYC4802-20134	0.98	Block	practice	23	20131111.082823	same	60	diff	0	1518
97	19	F	PSYC4802-20134	0.98	Block	practice	24	20131111.082826	diff	20	diff	1	8057
97	19	F	PSYC4802-20134	0.98	Block	practice	25	20131111.082836	same	100	same	1	3100
97	19	F	PSYC4802-20134	0.98	Block	practice	26	20131111.082842	diff	20	diff	1	1425
97	19	F	PSYC4802-20134	0.98	Block	practice	27	20131111.082845	same	60	same	1	1431
97	19	F	PSYC4802-20134	0.98	Block	practice	28	20131111.082848	diff	100	diff	1	2028
97	19	F	PSYC4802-20134	0.98	Block	practice	29	20131111.082852	same	100	diff	0	1882
97	19	F	PSYC4802-20134	0.98	Block	practice	30	20131111.082856	diff	60	diff	1	2808
97	19	F	PSYC4802-20134	0.98	Block	exp	31	20131111.082901	diff	100	diff	1	2732
97	19	F	PSYC4802-20134	0.98	Block	exp	32	20131111.082906	same	20	same	1	833
97	19	F	PSYC4802-20134	0.98	Block	exp	33	20131111.082909	same	60	same	1	1495
97	19	F	PSYC4802-20134	0.98	Block	exp	34	20131111.082912	diff	100	diff	1	3605
97	19	F	PSYC4802-20134	0.98	Block	exp	35	20131111.082918	diff	60	diff	1	2134
97	19	F	PSYC4802-20134	0.98	Block	exp	36	20131111.082922	same	100	same	1	1999
97	19	F	PSYC4802-20134	0.98	Block	exp	37	20131111.082926	diff	20	diff	1	1038
97	19	F	PSYC4802-20134	0.98	Block	exp	38	20131111.082929	diff	60	diff	1	1378
97	19	F	PSYC4802-20134	0.98	Block	exp	39	20131111.082932	diff	60	diff	1	1847
97	19	F	PSYC4802-20134	0.98	Block	exp	40	20131111.082936	same	60	same	1	1987
97	19	F	PSYC4802-20134	0.98	Block	exp	41	20131111.082940	same	60	diff	0	1642
97	19	F	PSYC4802-20134	0.98	Block	exp	42	20131111.082944	same	20	same	1	1044
97	19	F	PSYC4802-20134	0.98	Block	exp	43	20131111.082947	same	60	same	1	3189
97	19	F	PSYC4802-20134	0.98	Block	exp	44	20131111.082952	same	100	diff	0	1659
97	19	F	PSYC4802-20134	0.98	Block	exp	45	20131111.082955	diff	60	diff	1	1226
97	19	F	PSYC4802-20134	0.98	Block	exp	46	20131111.082959	same	100	same	1	968
97	19	F	PSYC4802-20134	0.98	Block	exp	47	20131111.083002	diff	100	diff	1	2637
97	19	F	PSYC4802-20134	0.98	Block	exp	48	20131111.083006	diff	20	diff	1	2461
97	19	F	PSYC4802-20134	0.98	Block	exp	49	20131111.083011	same	100	same	1	1343
97	19	F	PSYC4802-20134	0.98	Block	exp	50	20131111.083014	diff	100	same	0	3786
97	19	F	PSYC4802-20134	0.98	Block	exp	51	20131111.083028	same	100	same	1	3335
97	19	F	PSYC4802-20134	0.98	Block	exp	52	20131111.083033	diff	60	diff	1	4349
97	19	F	PSYC4802-20134	0.98	Block	exp	53	20131111.083040	diff	20	diff	1	1887
97	19	F	PSYC4802-20134	0.98	Block	exp	54	20131111.083044	diff	20	diff	1	2374
97	19	F	PSYC4802-20134	0.98	Block	exp	55	20131111.083048	diff	100	diff	1	2896
97	19	F	PSYC4802-20134	0.98	Block	exp	56	20131111.083053	diff	100	same	0	3933
97	19	F	PSYC4802-20134	0.98	Block	exp	57	20131111.083059	diff	20	diff	1	2725
97	19	F	PSYC4802-20134	0.98	Block	exp	58	20131111.083104	diff	100	diff	1	1319
97	19	F	PSYC4802-20134	0.98	Block	exp	59	20131111.083107	diff	60	diff	1	1742
97	19	F	PSYC4802-20134	0.98	Block	exp	60	20131111.083111	diff	60	diff	1	1771
97	19	F	PSYC4802-20134	0.98	Block	exp	61	20131111.083115	diff	60	diff	1	3042
97	19	F	PSYC4802-20134	0.98	Block	exp	62	20131111.083120	diff	20	diff	1	1554
97	19	F	PSYC4802-20134	0.98	Block	exp	63	20131111.083123	diff	100	diff	1	1161
97	19	F	PSYC4802-20134	0.98	Block	exp	64	20131111.083126	same	20	same	1	845
97	19	F	PSYC4802-20134	0.98	Block	exp	65	20131111.083129	same	20	same	1	815
97	19	F	PSYC4802-20134	0.98	Block	exp	66	20131111.083132	same	20	same	1	1478
97	19	F	PSYC4802-20134	0.98	Block	exp	67	20131111.083136	diff	100	diff	1	2615
97	19	F	PSYC4802-20134	0.98	Block	exp	68	20131111.083140	same	60	same	1	2521
97	19	F	PSYC4802-20134	0.98	Block	exp	69	20131111.083145	diff	100	diff	1	1554
97	19	F	PSYC4802-20134	0.98	Block	exp	70	20131111.083148	diff	20	same	0	856
97	19	F	PSYC4802-20134	0.98	Block	exp	71	20131111.083151	same	60	same	1	5146
97	19	F	PSYC4802-20134	0.98	Block	exp	72	20131111.083158	diff	20	diff	1	1044
97	19	F	PSYC4802-20134	0.98	Block	exp	73	20131111.083201	same	60	diff	0	1818
97	19	F	PSYC4802-20134	0.98	Block	exp	74	20131111.083205	diff	100	diff	1	3973
97	19	F	PSYC4802-20134	0.98	Block	exp	75	20131111.083211	same	20	same	1	1553
97	19	F	PSYC4802-20134	0.98	Block	exp	76	20131111.083215	diff	20	diff	1	1096
97	19	F	PSYC4802-20134	0.98	Block	exp	77	20131111.083218	diff	100	diff	1	1039
97	19	F	PSYC4802-20134	0.98	Block	exp	78	20131111.083221	diff	60	diff	1	1730
97	19	F	PSYC4802-20134	0.98	Block	exp	79	20131111.083225	same	100	diff	0	897
97	19	F	PSYC4802-20134	0.98	Block	exp	80	20131111.083228	diff	100	diff	1	2913
97	19	F	PSYC4802-20134	0.98	Block	exp	81	20131111.083233	diff	20	diff	1	2356
97	19	F	PSYC4802-20134	0.98	Block	exp	82	20131111.083237	diff	100	diff	1	1805
97	19	F	PSYC4802-20134	0.98	Block	exp	83	20131111.083241	same	20	diff	0	2369
97	19	F	PSYC4802-20134	0.98	Block	exp	84	20131111.083245	diff	60	diff	1	3305
97	19	F	PSYC4802-20134	0.98	Block	exp	85	20131111.083250	diff	100	diff	1	1964
97	19	F	PSYC4802-20134	0.98	Block	exp	86	20131111.083254	same	60	diff	0	950
97	19	F	PSYC4802-20134	0.98	Block	exp	87	20131111.083257	diff	60	diff	1	1132
97	19	F	PSYC4802-20134	0.98	Block	exp	88	20131111.083301	same	100	diff	0	3294
97	19	F	PSYC4802-20134	0.98	Block	exp	89	20131111.083306	diff	60	diff	1	4425
97	19	F	PSYC4802-20134	0.98	Block	exp	90	20131111.083312	same	60	same	1	2392
97	19	F	PSYC4802-20134	0.98	Block	exp	91	20131111.083317	same	60	same	1	1536
97	19	F	PSYC4802-20134	0.98	Block	exp	92	20131111.083320	same	20	same	1	2480
97	19	F	PSYC4802-20134	0.98	Block	exp	93	20131111.083325	diff	100	same	0	3563
97	19	F	PSYC4802-20134	0.98	Block	exp	94	20131111.083330	same	20	same	1	775
97	19	F	PSYC4802-20134	0.98	Block	exp	95	20131111.083333	diff	60	diff	1	1115
97	19	F	PSYC4802-20134	0.98	Block	exp	96	20131111.083336	same	100	same	1	1923
97	19	F	PSYC4802-20134	0.98	Block	exp	97	20131111.083340	same	100	same	1	2538
97	19	F	PSYC4802-20134	0.98	Block	exp	98	20131111.083345	same	100	diff	0	1003
97	19	F	PSYC4802-20134	0.98	Block	exp	99	20131111.083348	same	100	diff	0	2954
97	19	F	PSYC4802-20134	0.98	Block	exp	100	20131111.083353	diff	20	diff	1	1032
97	19	F	PSYC4802-20134	0.98	Block	exp	101	20131111.083404	same	20	same	1	3675
97	19	F	PSYC4802-20134	0.98	Block	exp	102	20131111.083410	diff	60	diff	1	1595
97	19	F	PSYC4802-20134	0.98	Block	exp	103	20131111.083413	same	100	same	1	1765
97	19	F	PSYC4802-20134	0.98	Block	exp	104	20131111.083417	diff	20	diff	1	1219
97	19	F	PSYC4802-20134	0.98	Block	exp	105	20131111.083420	same	60	same	1	1284
97	19	F	PSYC4802-20134	0.98	Block	exp	106	20131111.083424	diff	60	diff	1	2041
97	19	F	PSYC4802-20134	0.98	Block	exp	107	20131111.083428	diff	60	diff	1	1853
97	19	F	PSYC4802-20134	0.98	Block	exp	108	20131111.083431	same	20	same	1	622
97	19	F	PSYC4802-20134	0.98	Block	exp	109	20131111.083434	diff	20	diff	1	839
97	19	F	PSYC4802-20134	0.98	Block	exp	110	20131111.083437	diff	100	diff	1	1020
97	19	F	PSYC4802-20134	0.98	Block	exp	111	20131111.083440	diff	20	diff	1	862
97	19	F	PSYC4802-20134	0.98	Block	exp	112	20131111.083443	same	60	diff	0	1531
97	19	F	PSYC4802-20134	0.98	Block	exp	113	20131111.083446	diff	60	diff	1	897
97	19	F	PSYC4802-20134	0.98	Block	exp	114	20131111.083449	same	20	same	1	715
97	19	F	PSYC4802-20134	0.98	Block	exp	115	20131111.083452	same	100	diff	0	763
97	19	F	PSYC4802-20134	0.98	Block	exp	116	20131111.083455	diff	60	same	0	581
97	19	F	PSYC4802-20134	0.98	Block	exp	117	20131111.083457	same	20	same	1	658
97	19	F	PSYC4802-20134	0.98	Block	exp	118	20131111.083500	same	100	diff	0	1958
97	19	F	PSYC4802-20134	0.98	Block	exp	119	20131111.083504	diff	100	diff	1	3405
97	19	F	PSYC4802-20134	0.98	Block	exp	120	20131111.083509	same	20	same	1	657
97	19	F	PSYC4802-20134	0.98	Block	exp	121	20131111.083512	same	20	same	1	693
97	19	F	PSYC4802-20134	0.98	Block	exp	122	20131111.083515	diff	100	diff	1	950
97	19	F	PSYC4802-20134	0.98	Block	exp	123	20131111.083518	diff	20	diff	1	1062
97	19	F	PSYC4802-20134	0.98	Block	exp	124	20131111.083521	same	60	same	1	1513
97	19	F	PSYC4802-20134	0.98	Block	exp	125	20131111.083524	diff	20	diff	1	610
97	19	F	PSYC4802-20134	0.98	Block	exp	126	20131111.083527	diff	60	diff	1	904
97	19	F	PSYC4802-20134	0.98	Block	exp	127	20131111.083530	diff	20	diff	1	810
97	19	F	PSYC4802-20134	0.98	Block	exp	128	20131111.083532	same	20	same	1	563
97	19	F	PSYC4802-20134	0.98	Block	exp	129	20131111.083535	same	100	diff	0	1319
97	19	F	PSYC4802-20134	0.98	Block	exp	130	20131111.083538	same	100	diff	0	1858
97	19	F	PSYC4802-20134	0.98	Block	exp	131	20131111.083542	same	60	same	1	1630
97	19	F	PSYC4802-20134	0.98	Block	exp	132	20131111.083546	diff	60	diff	1	1846
97	19	F	PSYC4802-20134	0.98	Block	exp	133	20131111.083550	same	60	same	1	856
97	19	F	PSYC4802-20134	0.98	Block	exp	134	20131111.083552	diff	20	diff	1	1137
97	19	F	PSYC4802-20134	0.98	Block	exp	135	20131111.083556	diff	20	diff	1	939
97	19	F	PSYC4802-20134	0.98	Block	exp	136	20131111.083559	diff	20	diff	1	909
97	19	F	PSYC4802-20134	0.98	Block	exp	137	20131111.083601	same	20	same	1	1050
97	19	F	PSYC4802-20134	0.98	Block	exp	138	20131111.083604	diff	100	same	0	1090
97	19	F	PSYC4802-20134	0.98	Block	exp	139	20131111.083608	diff	100	diff	1	3036
97	19	F	PSYC4802-20134	0.98	Block	exp	140	20131111.083613	same	20	same	1	763
97	19	F	PSYC4802-20134	0.98	Block	exp	141	20131111.083615	diff	100	diff	1	675
97	19	F	PSYC4802-20134	0.98	Block	exp	142	20131111.083618	diff	100	diff	1	1671
97	19	F	PSYC4802-20134	0.98	Block	exp	143	20131111.083622	same	100	diff	0	898
97	19	F	PSYC4802-20134	0.98	Block	exp	144	20131111.083625	diff	20	diff	1	768
97	19	F	PSYC4802-20134	0.98	Block	exp	145	20131111.083627	diff	100	diff	1	1079
97	19	F	PSYC4802-20134	0.98	Block	exp	146	20131111.083630	diff	60	diff	1	1947
97	19	F	PSYC4802-20134	0.98	Block	exp	147	20131111.083634	same	20	same	1	640
97	19	F	PSYC4802-20134	0.98	Block	exp	148	20131111.083637	same	20	same	1	669
97	19	F	PSYC4802-20134	0.98	Block	exp	149	20131111.083640	same	60	same	1	932
97	19	F	PSYC4802-20134	0.98	Block	exp	150	20131111.083643	same	60	same	1	663
97	19	F	PSYC4802-20134	0.98	Block	exp	151	20131111.083651	diff	100	diff	1	1249
97	19	F	PSYC4802-20134	0.98	Block	exp	152	20131111.083654	same	100	same	1	845
97	19	F	PSYC4802-20134	0.98	Block	exp	153	20131111.083657	same	60	same	1	1894
97	19	F	PSYC4802-20134	0.98	Block	exp	154	20131111.083701	diff	20	diff	1	746
97	19	F	PSYC4802-20134	0.98	Block	exp	155	20131111.083703	diff	60	diff	1	1612
97	19	F	PSYC4802-20134	0.98	Block	exp	156	20131111.083707	same	100	diff	0	1572
97	19	F	PSYC4802-20134	0.98	Block	exp	157	20131111.083711	same	100	same	1	1255
97	19	F	PSYC4802-20134	0.98	Block	exp	158	20131111.083714	same	60	diff	0	1173
97	19	F	PSYC4802-20134	0.98	Block	exp	159	20131111.083717	same	100	diff	0	2679
97	19	F	PSYC4802-20134	0.98	Block	exp	160	20131111.083722	same	100	diff	0	1899
97	19	F	PSYC4802-20134	0.98	Block	exp	161	20131111.083726	diff	60	diff	1	5755
97	19	F	PSYC4802-20134	0.98	Block	exp	162	20131111.083733	diff	100	diff	1	2638
97	19	F	PSYC4802-20134	0.98	Block	exp	163	20131111.083738	same	100	diff	0	1782
97	19	F	PSYC4802-20134	0.98	Block	exp	164	20131111.083742	diff	20	diff	1	1144
97	19	F	PSYC4802-20134	0.98	Block	exp	165	20131111.083745	diff	100	diff	1	2158
97	19	F	PSYC4802-20134	0.98	Block	exp	166	20131111.083749	same	100	diff	0	1191
97	19	F	PSYC4802-20134	0.98	Block	exp	167	20131111.083752	same	20	same	1	786
97	19	F	PSYC4802-20134	0.98	Block	exp	168	20131111.083755	same	60	same	1	1449
97	19	F	PSYC4802-20134	0.98	Block	exp	169	20131111.083758	same	100	diff	0	1208
97	19	F	PSYC4802-20134	0.98	Block	exp	170	20131111.083802	diff	20	same	0	675
97	19	F	PSYC4802-20134	0.98	Block	exp	171	20131111.083804	diff	20	diff	1	1085
97	19	F	PSYC4802-20134	0.98	Block	exp	172	20131111.083807	same	60	same	1	1571
97	19	F	PSYC4802-20134	0.98	Block	exp	173	20131111.083811	same	60	same	1	3177
97	19	F	PSYC4802-20134	0.98	Block	exp	174	20131111.083816	same	20	same	1	687
97	19	F	PSYC4802-20134	0.98	Block	exp	175	20131111.083819	diff	60	diff	1	739
97	19	F	PSYC4802-20134	0.98	Block	exp	176	20131111.083822	same	60	diff	0	1455
97	19	F	PSYC4802-20134	0.98	Block	exp	177	20131111.083825	diff	20	diff	1	1219
97	19	F	PSYC4802-20134	0.98	Block	exp	178	20131111.083828	diff	20	diff	1	1208
97	19	F	PSYC4802-20134	0.98	Block	exp	179	20131111.083831	diff	60	diff	1	886
97	19	F	PSYC4802-20134	0.98	Block	exp	180	20131111.083834	diff	100	diff	1	1577
97	19	F	PSYC4802-20134	0.98	Block	exp	181	20131111.083838	same	20	same	1	616
97	19	F	PSYC4802-20134	0.98	Block	exp	182	20131111.083841	same	60	same	1	809
97	19	F	PSYC4802-20134	0.98	Block	exp	183	20131111.083843	same	60	same	1	998
97	19	F	PSYC4802-20134	0.98	Block	exp	184	20131111.083846	diff	60	diff	1	845
97	19	F	PSYC4802-20134	0.98	Block	exp	185	20131111.083849	diff	100	diff	1	769
97	19	F	PSYC4802-20134	0.98	Block	exp	186	20131111.083852	same	20	same	1	692
97	19	F	PSYC4802-20134	0.98	Block	exp	187	20131111.083855	same	60	same	1	1096
97	19	F	PSYC4802-20134	0.98	Block	exp	188	20131111.083858	same	100	diff	0	868
97	19	F	PSYC4802-20134	0.98	Block	exp	189	20131111.083901	same	20	same	1	611
97	19	F	PSYC4802-20134	0.98	Block	exp	190	20131111.083903	same	100	diff	0	1085
97	19	F	PSYC4802-20134	0.98	Block	exp	191	20131111.083906	diff	60	diff	1	1812
97	19	F	PSYC4802-20134	0.98	Block	exp	192	20131111.083910	same	100	same	1	1653
97	19	F	PSYC4802-20134	0.98	Block	exp	193	20131111.083914	diff	20	diff	1	798
97	19	F	PSYC4802-20134	0.98	Block	exp	194	20131111.083917	same	20	same	1	546
97	19	F	PSYC4802-20134	0.98	Block	exp	195	20131111.083919	same	100	diff	0	1952
97	19	F	PSYC4802-20134	0.98	Block	exp	196	20131111.083923	diff	20	diff	1	1331
97	19	F	PSYC4802-20134	0.98	Block	exp	197	20131111.083927	diff	100	diff	1	909
97	19	F	PSYC4802-20134	0.98	Block	exp	198	20131111.083929	same	60	same	1	675
97	19	F	PSYC4802-20134	0.98	Block	exp	199	20131111.083932	same	100	same	1	640
97	19	F	PSYC4802-20134	0.98	Block	exp	200	20131111.083935	diff	100	same	0	2193
97	19	F	PSYC4802-20134	0.98	Block	exp	201	20131111.083947	same	60	same	1	3546
97	19	F	PSYC4802-20134	0.98	Block	exp	202	20131111.083953	same	100	diff	0	980
97	19	F	PSYC4802-20134	0.98	Block	exp	203	20131111.083956	same	20	same	1	722
97	19	F	PSYC4802-20134	0.98	Block	exp	204	20131111.083959	same	20	same	1	727
97	19	F	PSYC4802-20134	0.98	Block	exp	205	20131111.084001	diff	100	same	0	1156
97	19	F	PSYC4802-20134	0.98	Block	exp	206	20131111.084005	same	60	same	1	1905
97	19	F	PSYC4802-20134	0.98	Block	exp	207	20131111.084009	diff	100	diff	1	886
97	19	F	PSYC4802-20134	0.98	Block	exp	208	20131111.084011	same	20	same	1	575
97	19	F	PSYC4802-20134	0.98	Block	exp	209	20131111.084014	same	20	same	1	546
97	19	F	PSYC4802-20134	0.98	Block	exp	210	20131111.084017	diff	20	diff	1	1097
97	19	F	PSYC4802-20134	0.98	Block	exp	211	20131111.084020	same	100	diff	0	681
97	19	F	PSYC4802-20134	0.98	Block	exp	212	20131111.084022	same	60	same	1	827
97	19	F	PSYC4802-20134	0.98	Block	exp	213	20131111.084025	diff	100	diff	1	2327
97	19	F	PSYC4802-20134	0.98	Block	exp	214	20131111.084030	same	20	same	1	705
97	19	F	PSYC4802-20134	0.98	Block	exp	215	20131111.084032	same	20	same	1	757
97	19	F	PSYC4802-20134	0.98	Block	exp	216	20131111.084035	diff	60	diff	1	757
97	19	F	PSYC4802-20134	0.98	Block	exp	217	20131111.084038	diff	20	diff	1	1208
97	19	F	PSYC4802-20134	0.98	Block	exp	218	20131111.084041	diff	60	diff	1	605
97	19	F	PSYC4802-20134	0.98	Block	exp	219	20131111.084044	diff	100	diff	1	1384
97	19	F	PSYC4802-20134	0.98	Block	exp	220	20131111.084047	diff	60	same	0	1214
97	19	F	PSYC4802-20134	0.98	Block	exp	221	20131111.084050	diff	60	same	0	1302
97	19	F	PSYC4802-20134	0.98	Block	exp	222	20131111.084054	diff	60	diff	1	2227
97	19	F	PSYC4802-20134	0.98	Block	exp	223	20131111.084058	diff	100	diff	1	634
97	19	F	PSYC4802-20134	0.98	Block	exp	224	20131111.084100	diff	20	diff	1	803
97	19	F	PSYC4802-20134	0.98	Block	exp	225	20131111.084103	diff	20	diff	1	727
97	19	F	PSYC4802-20134	0.98	Block	exp	226	20131111.084106	same	60	same	1	745
97	19	F	PSYC4802-20134	0.98	Block	exp	227	20131111.084109	same	20	same	1	1197
97	19	F	PSYC4802-20134	0.98	Block	exp	228	20131111.084112	diff	60	diff	1	727
97	19	F	PSYC4802-20134	0.98	Block	exp	229	20131111.084115	diff	100	same	0	646
97	19	F	PSYC4802-20134	0.98	Block	exp	230	20131111.084117	diff	100	diff	1	1383
97	19	F	PSYC4802-20134	0.98	Block	exp	231	20131111.084121	diff	60	diff	1	939
97	19	F	PSYC4802-20134	0.98	Block	exp	232	20131111.084124	same	100	diff	0	652
97	19	F	PSYC4802-20134	0.98	Block	exp	233	20131111.084126	same	20	same	1	774
97	19	F	PSYC4802-20134	0.98	Block	exp	234	20131111.084129	diff	100	diff	1	669
97	19	F	PSYC4802-20134	0.98	Block	exp	235	20131111.084132	same	60	same	1	727
97	19	F	PSYC4802-20134	0.98	Block	exp	236	20131111.084134	same	60	diff	0	763
97	19	F	PSYC4802-20134	0.98	Block	exp	237	20131111.084137	diff	60	diff	1	909
97	19	F	PSYC4802-20134	0.98	Block	exp	238	20131111.084140	same	100	diff	0	1917
97	19	F	PSYC4802-20134	0.98	Block	exp	239	20131111.084144	same	20	same	1	810
97	19	F	PSYC4802-20134	0.98	Block	exp	240	20131111.084147	same	20	same	1	569
97	19	F	PSYC4802-20134	0.98	Block	exp	241	20131111.084149	diff	100	diff	1	710
97	19	F	PSYC4802-20134	0.98	Block	exp	242	20131111.084152	same	60	same	1	1929
97	19	F	PSYC4802-20134	0.98	Block	exp	243	20131111.084156	same	100	diff	0	763
97	19	F	PSYC4802-20134	0.98	Block	exp	244	20131111.084159	diff	20	same	0	1097
97	19	F	PSYC4802-20134	0.98	Block	exp	245	20131111.084202	diff	100	diff	1	1976
97	19	F	PSYC4802-20134	0.98	Block	exp	246	20131111.084206	same	60	diff	0	1496
97	19	F	PSYC4802-20134	0.98	Block	exp	247	20131111.084209	same	60	same	1	1372
97	19	F	PSYC4802-20134	0.98	Block	exp	248	20131111.084213	diff	60	diff	1	657
97	19	F	PSYC4802-20134	0.98	Block	exp	249	20131111.084215	same	20	same	1	634
97	19	F	PSYC4802-20134	0.98	Block	exp	250	20131111.084218	diff	20	diff	1	733
97	19	F	PSYC4802-20134	0.98	Block	exp	251	20131111.084224	same	100	same	1	1413
97	19	F	PSYC4802-20134	0.98	Block	exp	252	20131111.084227	same	60	same	1	1150
97	19	F	PSYC4802-20134	0.98	Block	exp	253	20131111.084231	diff	20	diff	1	933
97	19	F	PSYC4802-20134	0.98	Block	exp	254	20131111.084233	diff	20	diff	1	727
97	19	F	PSYC4802-20134	0.98	Block	exp	255	20131111.084236	same	60	same	1	692
97	19	F	PSYC4802-20134	0.98	Block	exp	256	20131111.084239	diff	60	same	0	1477
97	19	F	PSYC4802-20134	0.98	Block	exp	257	20131111.084242	diff	100	diff	1	2234
97	19	F	PSYC4802-20134	0.98	Block	exp	258	20131111.084246	same	20	same	1	680
97	19	F	PSYC4802-20134	0.98	Block	exp	259	20131111.084249	diff	100	diff	1	763
97	19	F	PSYC4802-20134	0.98	Block	exp	260	20131111.084252	same	100	diff	0	1056
97	19	F	PSYC4802-20134	0.98	Block	exp	261	20131111.084255	same	60	diff	0	2245
97	19	F	PSYC4802-20134	0.98	Block	exp	262	20131111.084259	same	60	same	1	1185
97	19	F	PSYC4802-20134	0.98	Block	exp	263	20131111.084302	diff	20	same	0	839
97	19	F	PSYC4802-20134	0.98	Block	exp	264	20131111.084305	diff	60	diff	1	1126
97	19	F	PSYC4802-20134	0.98	Block	exp	265	20131111.084308	diff	60	diff	1	1226
97	19	F	PSYC4802-20134	0.98	Block	exp	266	20131111.084311	same	20	same	1	845
97	19	F	PSYC4802-20134	0.98	Block	exp	267	20131111.084314	same	100	same	1	2456
97	19	F	PSYC4802-20134	0.98	Block	exp	268	20131111.084319	same	60	same	1	1360
97	19	F	PSYC4802-20134	0.98	Block	exp	269	20131111.084322	same	60	same	1	658
97	19	F	PSYC4802-20134	0.98	Block	exp	270	20131111.084325	diff	20	diff	1	698
97	19	F	PSYC4802-20134	0.98	Block	exp	271	20131111.084327	diff	20	diff	1	2398
97	19	F	PSYC4802-20134	0.98	Block	exp	272	20131111.084332	same	100	diff	0	751
97	19	F	PSYC4802-20134	0.98	Block	exp	273	20131111.084335	same	20	same	1	482
97	19	F	PSYC4802-20134	0.98	Block	exp	274	20131111.084337	same	60	same	1	880
97	19	F	PSYC4802-20134	0.98	Block	exp	275	20131111.084340	same	60	same	1	862
97	19	F	PSYC4802-20134	0.98	Block	exp	276	20131111.084343	diff	100	diff	1	692
97	19	F	PSYC4802-20134	0.98	Block	exp	277	20131111.084346	same	20	same	1	728
97	19	F	PSYC4802-20134	0.98	Block	exp	278	20131111.084348	same	100	diff	0	1624
97	19	F	PSYC4802-20134	0.98	Block	exp	279	20131111.084352	diff	20	diff	1	903
97	19	F	PSYC4802-20134	0.98	Block	exp	280	20131111.084355	diff	60	same	0	680
97	19	F	PSYC4802-20134	0.98	Block	exp	281	20131111.084357	diff	20	diff	1	962
97	19	F	PSYC4802-20134	0.98	Block	exp	282	20131111.084400	diff	60	diff	1	2005
97	19	F	PSYC4802-20134	0.98	Block	exp	283	20131111.084404	same	100	diff	0	616
97	19	F	PSYC4802-20134	0.98	Block	exp	284	20131111.084407	diff	60	diff	1	1196
97	19	F	PSYC4802-20134	0.98	Block	exp	285	20131111.084410	same	20	same	1	763
97	19	F	PSYC4802-20134	0.98	Block	exp	286	20131111.084413	same	100	diff	0	2017
97	19	F	PSYC4802-20134	0.98	Block	exp	287	20131111.084417	same	100	diff	0	944
97	19	F	PSYC4802-20134	0.98	Block	exp	288	20131111.084420	diff	20	diff	1	809
97	19	F	PSYC4802-20134	0.98	Block	exp	289	20131111.084423	diff	100	diff	1	1665
97	19	F	PSYC4802-20134	0.98	Block	exp	290	20131111.084426	diff	60	diff	1	1478
97	19	F	PSYC4802-20134	0.98	Block	exp	291	20131111.084430	diff	60	diff	1	698
97	19	F	PSYC4802-20134	0.98	Block	exp	292	20131111.084433	same	20	same	1	587
97	19	F	PSYC4802-20134	0.98	Block	exp	293	20131111.084435	diff	60	diff	1	716
97	19	F	PSYC4802-20134	0.98	Block	exp	294	20131111.084438	same	100	diff	0	822
97	19	F	PSYC4802-20134	0.98	Block	exp	295	20131111.084441	same	60	same	1	1015
97	19	F	PSYC4802-20134	0.98	Block	exp	296	20131111.084444	diff	20	diff	1	816
97	19	F	PSYC4802-20134	0.98	Block	exp	297	20131111.084447	same	20	same	1	634
97	19	F	PSYC4802-20134	0.98	Block	exp	298	20131111.084449	same	20	same	1	470
97	19	F	PSYC4802-20134	0.98	Block	exp	299	20131111.084452	same	100	diff	0	664
97	19	F	PSYC4802-20134	0.98	Block	exp	300	20131111.084454	diff	20	diff	1	763
