Subject	Age	Sex	Experiment	Version	Block	TrialType	Trial	Timestamp	SameDiff	Rotation	Response	Acc	RT
24	20	F	PSYC4802-20134	0.98	Block	practice	1	20131016.105002	diff	100	same	0	2345
24	20	F	PSYC4802-20134	0.98	Block	practice	2	20131016.105007	diff	20	diff	1	18410
24	20	F	PSYC4802-20134	0.98	Block	practice	3	20131016.105028	same	20	same	1	2520
24	20	F	PSYC4802-20134	0.98	Block	practice	4	20131016.105032	same	60	same	1	8134
24	20	F	PSYC4802-20134	0.98	Block	practice	5	20131016.105043	same	100	same	1	3633
24	20	F	PSYC4802-20134	0.98	Block	practice	6	20131016.105048	diff	60	diff	1	2761
24	20	F	PSYC4802-20134	0.98	Block	practice	7	20131016.105053	diff	100	same	0	1976
24	20	F	PSYC4802-20134	0.98	Block	practice	8	20131016.105057	same	100	same	1	2766
24	20	F	PSYC4802-20134	0.98	Block	practice	9	20131016.105102	same	20	same	1	1882
24	20	F	PSYC4802-20134	0.98	Block	practice	10	20131016.105106	diff	20	diff	1	4413
24	20	F	PSYC4802-20134	0.98	Block	practice	11	20131016.105112	diff	20	diff	1	3382
24	20	F	PSYC4802-20134	0.98	Block	practice	12	20131016.105118	same	20	same	1	1414
24	20	F	PSYC4802-20134	0.98	Block	practice	13	20131016.105121	same	100	same	1	2222
24	20	F	PSYC4802-20134	0.98	Block	practice	14	20131016.105125	same	60	same	1	1782
24	20	F	PSYC4802-20134	0.98	Block	practice	15	20131016.105129	diff	20	diff	1	1882
24	20	F	PSYC4802-20134	0.98	Block	practice	16	20131016.105133	diff	20	diff	1	3147
24	20	F	PSYC4802-20134	0.98	Block	practice	17	20131016.105138	same	60	same	1	898
24	20	F	PSYC4802-20134	0.98	Block	practice	18	20131016.105141	same	60	same	1	2327
24	20	F	PSYC4802-20134	0.98	Block	practice	19	20131016.105145	same	20	same	1	2509
24	20	F	PSYC4802-20134	0.98	Block	practice	20	20131016.105150	same	100	same	1	1518
24	20	F	PSYC4802-20134	0.98	Block	practice	21	20131016.105154	diff	60	diff	1	2081
24	20	F	PSYC4802-20134	0.98	Block	practice	22	20131016.105158	diff	100	diff	1	2040
24	20	F	PSYC4802-20134	0.98	Block	practice	23	20131016.105202	same	100	same	1	2503
24	20	F	PSYC4802-20134	0.98	Block	practice	24	20131016.105206	diff	60	diff	1	1542
24	20	F	PSYC4802-20134	0.98	Block	practice	25	20131016.105210	same	60	same	1	1536
24	20	F	PSYC4802-20134	0.98	Block	practice	26	20131016.105213	same	20	same	1	1232
24	20	F	PSYC4802-20134	0.98	Block	practice	27	20131016.105217	diff	60	diff	1	2133
24	20	F	PSYC4802-20134	0.98	Block	practice	28	20131016.105221	diff	60	diff	1	1677
24	20	F	PSYC4802-20134	0.98	Block	practice	29	20131016.105224	diff	100	diff	1	3160
24	20	F	PSYC4802-20134	0.98	Block	practice	30	20131016.105230	diff	100	diff	1	1905
24	20	F	PSYC4802-20134	0.98	Block	exp	31	20131016.105234	diff	100	diff	1	2550
24	20	F	PSYC4802-20134	0.98	Block	exp	32	20131016.105238	same	60	same	1	1061
24	20	F	PSYC4802-20134	0.98	Block	exp	33	20131016.105241	diff	100	diff	1	1490
24	20	F	PSYC4802-20134	0.98	Block	exp	34	20131016.105245	same	20	same	1	1513
24	20	F	PSYC4802-20134	0.98	Block	exp	35	20131016.105248	diff	60	diff	1	1319
24	20	F	PSYC4802-20134	0.98	Block	exp	36	20131016.105252	same	60	same	1	1079
24	20	F	PSYC4802-20134	0.98	Block	exp	37	20131016.105255	same	60	same	1	1659
24	20	F	PSYC4802-20134	0.98	Block	exp	38	20131016.105259	diff	60	diff	1	968
24	20	F	PSYC4802-20134	0.98	Block	exp	39	20131016.105302	diff	60	diff	1	997
24	20	F	PSYC4802-20134	0.98	Block	exp	40	20131016.105305	same	100	diff	0	1946
24	20	F	PSYC4802-20134	0.98	Block	exp	41	20131016.105309	diff	20	diff	1	1993
24	20	F	PSYC4802-20134	0.98	Block	exp	42	20131016.105313	same	60	same	1	1091
24	20	F	PSYC4802-20134	0.98	Block	exp	43	20131016.105316	same	100	same	1	1964
24	20	F	PSYC4802-20134	0.98	Block	exp	44	20131016.105320	same	100	same	1	2984
24	20	F	PSYC4802-20134	0.98	Block	exp	45	20131016.105325	diff	100	diff	1	1279
24	20	F	PSYC4802-20134	0.98	Block	exp	46	20131016.105328	same	100	same	1	1513
24	20	F	PSYC4802-20134	0.98	Block	exp	47	20131016.105332	same	20	same	1	1677
24	20	F	PSYC4802-20134	0.98	Block	exp	48	20131016.105335	same	20	same	1	1155
24	20	F	PSYC4802-20134	0.98	Block	exp	49	20131016.105338	diff	100	diff	1	1190
24	20	F	PSYC4802-20134	0.98	Block	exp	50	20131016.105342	diff	100	diff	1	1601
24	20	F	PSYC4802-20134	0.98	Block	exp	51	20131016.105351	same	100	diff	0	1958
24	20	F	PSYC4802-20134	0.98	Block	exp	52	20131016.105355	same	20	same	1	921
24	20	F	PSYC4802-20134	0.98	Block	exp	53	20131016.105358	same	100	diff	0	1466
24	20	F	PSYC4802-20134	0.98	Block	exp	54	20131016.105401	diff	20	diff	1	1172
24	20	F	PSYC4802-20134	0.98	Block	exp	55	20131016.105404	same	20	same	1	973
24	20	F	PSYC4802-20134	0.98	Block	exp	56	20131016.105407	diff	60	diff	1	933
24	20	F	PSYC4802-20134	0.98	Block	exp	57	20131016.105410	same	60	same	1	1817
24	20	F	PSYC4802-20134	0.98	Block	exp	58	20131016.105414	same	20	same	1	1225
24	20	F	PSYC4802-20134	0.98	Block	exp	59	20131016.105417	diff	60	diff	1	1448
24	20	F	PSYC4802-20134	0.98	Block	exp	60	20131016.105421	same	100	same	1	1436
24	20	F	PSYC4802-20134	0.98	Block	exp	61	20131016.105424	same	60	same	1	768
24	20	F	PSYC4802-20134	0.98	Block	exp	62	20131016.105427	diff	100	diff	1	1331
24	20	F	PSYC4802-20134	0.98	Block	exp	63	20131016.105431	diff	60	diff	1	1132
24	20	F	PSYC4802-20134	0.98	Block	exp	64	20131016.105434	diff	100	diff	1	1671
24	20	F	PSYC4802-20134	0.98	Block	exp	65	20131016.105437	same	100	same	1	1507
24	20	F	PSYC4802-20134	0.98	Block	exp	66	20131016.105441	same	100	same	1	2409
24	20	F	PSYC4802-20134	0.98	Block	exp	67	20131016.105445	diff	60	diff	1	1524
24	20	F	PSYC4802-20134	0.98	Block	exp	68	20131016.105449	same	60	same	1	2040
24	20	F	PSYC4802-20134	0.98	Block	exp	69	20131016.105453	diff	60	diff	1	986
24	20	F	PSYC4802-20134	0.98	Block	exp	70	20131016.105456	same	60	same	1	2046
24	20	F	PSYC4802-20134	0.98	Block	exp	71	20131016.105500	diff	20	diff	1	1209
24	20	F	PSYC4802-20134	0.98	Block	exp	72	20131016.105503	diff	100	diff	1	1694
24	20	F	PSYC4802-20134	0.98	Block	exp	73	20131016.105507	same	100	same	1	1560
24	20	F	PSYC4802-20134	0.98	Block	exp	74	20131016.105511	same	60	same	1	1179
24	20	F	PSYC4802-20134	0.98	Block	exp	75	20131016.105514	diff	60	diff	1	1870
24	20	F	PSYC4802-20134	0.98	Block	exp	76	20131016.105518	diff	60	diff	1	1618
24	20	F	PSYC4802-20134	0.98	Block	exp	77	20131016.105521	diff	100	diff	1	1571
24	20	F	PSYC4802-20134	0.98	Block	exp	78	20131016.105525	same	20	same	1	903
24	20	F	PSYC4802-20134	0.98	Block	exp	79	20131016.105528	same	100	same	1	1852
24	20	F	PSYC4802-20134	0.98	Block	exp	80	20131016.105532	diff	20	diff	1	2116
24	20	F	PSYC4802-20134	0.98	Block	exp	81	20131016.105536	same	20	same	1	763
24	20	F	PSYC4802-20134	0.98	Block	exp	82	20131016.105538	diff	60	diff	1	1049
24	20	F	PSYC4802-20134	0.98	Block	exp	83	20131016.105541	diff	60	diff	1	2931
24	20	F	PSYC4802-20134	0.98	Block	exp	84	20131016.105546	same	60	same	1	851
24	20	F	PSYC4802-20134	0.98	Block	exp	85	20131016.105549	same	100	same	1	1525
24	20	F	PSYC4802-20134	0.98	Block	exp	86	20131016.105553	diff	20	diff	1	1770
24	20	F	PSYC4802-20134	0.98	Block	exp	87	20131016.105557	same	20	same	1	798
24	20	F	PSYC4802-20134	0.98	Block	exp	88	20131016.105559	diff	20	diff	1	1167
24	20	F	PSYC4802-20134	0.98	Block	exp	89	20131016.105603	diff	100	diff	1	1226
24	20	F	PSYC4802-20134	0.98	Block	exp	90	20131016.105606	same	100	same	1	1806
24	20	F	PSYC4802-20134	0.98	Block	exp	91	20131016.105610	same	20	same	1	898
24	20	F	PSYC4802-20134	0.98	Block	exp	92	20131016.105613	same	100	same	1	1665
24	20	F	PSYC4802-20134	0.98	Block	exp	93	20131016.105616	same	60	same	1	1085
24	20	F	PSYC4802-20134	0.98	Block	exp	94	20131016.105619	same	20	same	1	751
24	20	F	PSYC4802-20134	0.98	Block	exp	95	20131016.105622	same	60	same	1	2544
24	20	F	PSYC4802-20134	0.98	Block	exp	96	20131016.105627	same	100	same	1	1536
24	20	F	PSYC4802-20134	0.98	Block	exp	97	20131016.105630	same	100	same	1	1817
24	20	F	PSYC4802-20134	0.98	Block	exp	98	20131016.105634	same	100	same	1	2187
24	20	F	PSYC4802-20134	0.98	Block	exp	99	20131016.105638	diff	60	diff	1	1630
24	20	F	PSYC4802-20134	0.98	Block	exp	100	20131016.105642	diff	20	diff	1	1185
24	20	F	PSYC4802-20134	0.98	Block	exp	101	20131016.105647	diff	100	diff	1	1630
24	20	F	PSYC4802-20134	0.98	Block	exp	102	20131016.105651	diff	100	diff	1	1478
24	20	F	PSYC4802-20134	0.98	Block	exp	103	20131016.105654	same	60	same	1	774
24	20	F	PSYC4802-20134	0.98	Block	exp	104	20131016.105657	same	20	same	1	1214
24	20	F	PSYC4802-20134	0.98	Block	exp	105	20131016.105700	diff	20	diff	1	1091
24	20	F	PSYC4802-20134	0.98	Block	exp	106	20131016.105703	diff	60	diff	1	1196
24	20	F	PSYC4802-20134	0.98	Block	exp	107	20131016.105707	diff	20	diff	1	997
24	20	F	PSYC4802-20134	0.98	Block	exp	108	20131016.105710	diff	20	diff	1	956
24	20	F	PSYC4802-20134	0.98	Block	exp	109	20131016.105712	diff	100	diff	1	1120
24	20	F	PSYC4802-20134	0.98	Block	exp	110	20131016.105716	same	60	same	1	687
24	20	F	PSYC4802-20134	0.98	Block	exp	111	20131016.105718	diff	100	diff	1	939
24	20	F	PSYC4802-20134	0.98	Block	exp	112	20131016.105721	diff	60	diff	1	1765
24	20	F	PSYC4802-20134	0.98	Block	exp	113	20131016.105725	diff	20	diff	1	850
24	20	F	PSYC4802-20134	0.98	Block	exp	114	20131016.105728	same	20	same	1	844
24	20	F	PSYC4802-20134	0.98	Block	exp	115	20131016.105731	same	60	diff	0	1015
24	20	F	PSYC4802-20134	0.98	Block	exp	116	20131016.105734	same	100	same	1	1080
24	20	F	PSYC4802-20134	0.98	Block	exp	117	20131016.105737	same	100	diff	0	2081
24	20	F	PSYC4802-20134	0.98	Block	exp	118	20131016.105741	diff	20	diff	1	1759
24	20	F	PSYC4802-20134	0.98	Block	exp	119	20131016.105745	diff	100	diff	1	1337
24	20	F	PSYC4802-20134	0.98	Block	exp	120	20131016.105748	diff	20	diff	1	1465
24	20	F	PSYC4802-20134	0.98	Block	exp	121	20131016.105752	same	20	same	1	1408
24	20	F	PSYC4802-20134	0.98	Block	exp	122	20131016.105755	diff	20	diff	1	1079
24	20	F	PSYC4802-20134	0.98	Block	exp	123	20131016.105758	same	100	same	1	992
24	20	F	PSYC4802-20134	0.98	Block	exp	124	20131016.105801	diff	100	diff	1	1747
24	20	F	PSYC4802-20134	0.98	Block	exp	125	20131016.105805	same	100	same	1	2193
24	20	F	PSYC4802-20134	0.98	Block	exp	126	20131016.105809	diff	100	diff	1	1290
24	20	F	PSYC4802-20134	0.98	Block	exp	127	20131016.105812	diff	20	diff	1	1437
24	20	F	PSYC4802-20134	0.98	Block	exp	128	20131016.105816	same	60	same	1	857
24	20	F	PSYC4802-20134	0.98	Block	exp	129	20131016.105819	same	60	same	1	1320
24	20	F	PSYC4802-20134	0.98	Block	exp	130	20131016.105822	same	100	same	1	1378
24	20	F	PSYC4802-20134	0.98	Block	exp	131	20131016.105825	same	20	same	1	1038
24	20	F	PSYC4802-20134	0.98	Block	exp	132	20131016.105828	diff	20	diff	1	1542
24	20	F	PSYC4802-20134	0.98	Block	exp	133	20131016.105832	diff	100	diff	1	1214
24	20	F	PSYC4802-20134	0.98	Block	exp	134	20131016.105835	diff	100	diff	1	1085
24	20	F	PSYC4802-20134	0.98	Block	exp	135	20131016.105839	diff	20	diff	1	1009
24	20	F	PSYC4802-20134	0.98	Block	exp	136	20131016.105842	same	60	same	1	1455
24	20	F	PSYC4802-20134	0.98	Block	exp	137	20131016.105845	diff	60	diff	1	1255
24	20	F	PSYC4802-20134	0.98	Block	exp	138	20131016.105848	diff	60	diff	1	1759
24	20	F	PSYC4802-20134	0.98	Block	exp	139	20131016.105852	same	60	same	1	904
24	20	F	PSYC4802-20134	0.98	Block	exp	140	20131016.105855	diff	20	diff	1	1712
24	20	F	PSYC4802-20134	0.98	Block	exp	141	20131016.105859	same	20	same	1	722
24	20	F	PSYC4802-20134	0.98	Block	exp	142	20131016.105902	diff	60	diff	1	1301
24	20	F	PSYC4802-20134	0.98	Block	exp	143	20131016.105905	diff	20	diff	1	1882
24	20	F	PSYC4802-20134	0.98	Block	exp	144	20131016.105909	diff	60	diff	1	803
24	20	F	PSYC4802-20134	0.98	Block	exp	145	20131016.105912	diff	20	diff	1	1835
24	20	F	PSYC4802-20134	0.98	Block	exp	146	20131016.105916	same	60	same	1	1788
24	20	F	PSYC4802-20134	0.98	Block	exp	147	20131016.105919	same	100	same	1	1272
24	20	F	PSYC4802-20134	0.98	Block	exp	148	20131016.105923	same	20	same	1	768
24	20	F	PSYC4802-20134	0.98	Block	exp	149	20131016.105926	diff	20	diff	1	2069
24	20	F	PSYC4802-20134	0.98	Block	exp	150	20131016.105930	diff	60	diff	1	1138
24	20	F	PSYC4802-20134	0.98	Block	exp	151	20131016.105934	diff	60	diff	1	1724
24	20	F	PSYC4802-20134	0.98	Block	exp	152	20131016.105938	same	100	same	1	798
24	20	F	PSYC4802-20134	0.98	Block	exp	153	20131016.105941	same	60	same	1	968
24	20	F	PSYC4802-20134	0.98	Block	exp	154	20131016.105944	diff	60	diff	1	939
24	20	F	PSYC4802-20134	0.98	Block	exp	155	20131016.105947	diff	100	diff	1	1020
24	20	F	PSYC4802-20134	0.98	Block	exp	156	20131016.105950	same	100	same	1	2134
24	20	F	PSYC4802-20134	0.98	Block	exp	157	20131016.105954	same	100	same	1	3400
24	20	F	PSYC4802-20134	0.98	Block	exp	158	20131016.110000	same	20	same	1	1237
24	20	F	PSYC4802-20134	0.98	Block	exp	159	20131016.110003	same	60	same	1	991
24	20	F	PSYC4802-20134	0.98	Block	exp	160	20131016.110006	same	20	same	1	693
24	20	F	PSYC4802-20134	0.98	Block	exp	161	20131016.110009	diff	20	diff	1	874
24	20	F	PSYC4802-20134	0.98	Block	exp	162	20131016.110012	diff	100	diff	1	1366
24	20	F	PSYC4802-20134	0.98	Block	exp	163	20131016.110015	diff	60	diff	1	933
24	20	F	PSYC4802-20134	0.98	Block	exp	164	20131016.110018	same	20	same	1	1232
24	20	F	PSYC4802-20134	0.98	Block	exp	165	20131016.110021	same	20	same	1	699
24	20	F	PSYC4802-20134	0.98	Block	exp	166	20131016.110024	diff	100	diff	1	898
24	20	F	PSYC4802-20134	0.98	Block	exp	167	20131016.110027	diff	100	diff	1	1635
24	20	F	PSYC4802-20134	0.98	Block	exp	168	20131016.110030	diff	20	diff	1	1038
24	20	F	PSYC4802-20134	0.98	Block	exp	169	20131016.110033	same	20	same	1	763
24	20	F	PSYC4802-20134	0.98	Block	exp	170	20131016.110036	diff	100	diff	1	1244
24	20	F	PSYC4802-20134	0.98	Block	exp	171	20131016.110040	diff	20	diff	1	1061
24	20	F	PSYC4802-20134	0.98	Block	exp	172	20131016.110043	diff	60	diff	1	1723
24	20	F	PSYC4802-20134	0.98	Block	exp	173	20131016.110046	diff	100	diff	1	1823
24	20	F	PSYC4802-20134	0.98	Block	exp	174	20131016.110050	diff	60	diff	1	1173
24	20	F	PSYC4802-20134	0.98	Block	exp	175	20131016.110053	diff	60	diff	1	909
24	20	F	PSYC4802-20134	0.98	Block	exp	176	20131016.110056	diff	100	diff	1	1554
24	20	F	PSYC4802-20134	0.98	Block	exp	177	20131016.110100	same	100	same	1	2092
24	20	F	PSYC4802-20134	0.98	Block	exp	178	20131016.110104	same	60	same	1	980
24	20	F	PSYC4802-20134	0.98	Block	exp	179	20131016.110107	diff	20	diff	1	1261
24	20	F	PSYC4802-20134	0.98	Block	exp	180	20131016.110110	same	20	same	1	821
24	20	F	PSYC4802-20134	0.98	Block	exp	181	20131016.110113	same	60	same	1	921
24	20	F	PSYC4802-20134	0.98	Block	exp	182	20131016.110116	same	60	same	1	622
24	20	F	PSYC4802-20134	0.98	Block	exp	183	20131016.110119	same	100	diff	0	1518
24	20	F	PSYC4802-20134	0.98	Block	exp	184	20131016.110122	same	60	same	1	1055
24	20	F	PSYC4802-20134	0.98	Block	exp	185	20131016.110125	diff	20	diff	1	1068
24	20	F	PSYC4802-20134	0.98	Block	exp	186	20131016.110129	diff	60	diff	1	1636
24	20	F	PSYC4802-20134	0.98	Block	exp	187	20131016.110132	same	100	same	1	845
24	20	F	PSYC4802-20134	0.98	Block	exp	188	20131016.110135	same	20	same	1	646
24	20	F	PSYC4802-20134	0.98	Block	exp	189	20131016.110138	same	100	same	1	1320
24	20	F	PSYC4802-20134	0.98	Block	exp	190	20131016.110141	diff	20	diff	1	1120
24	20	F	PSYC4802-20134	0.98	Block	exp	191	20131016.110144	diff	100	diff	1	1378
24	20	F	PSYC4802-20134	0.98	Block	exp	192	20131016.110148	same	60	same	1	939
24	20	F	PSYC4802-20134	0.98	Block	exp	193	20131016.110151	diff	20	diff	1	1061
24	20	F	PSYC4802-20134	0.98	Block	exp	194	20131016.110154	diff	20	diff	1	1050
24	20	F	PSYC4802-20134	0.98	Block	exp	195	20131016.110157	same	20	same	1	622
24	20	F	PSYC4802-20134	0.98	Block	exp	196	20131016.110159	diff	100	diff	1	1348
24	20	F	PSYC4802-20134	0.98	Block	exp	197	20131016.110203	same	60	same	1	1032
24	20	F	PSYC4802-20134	0.98	Block	exp	198	20131016.110206	same	20	same	1	757
24	20	F	PSYC4802-20134	0.98	Block	exp	199	20131016.110209	diff	100	diff	1	1138
24	20	F	PSYC4802-20134	0.98	Block	exp	200	20131016.110212	diff	60	diff	1	816
24	20	F	PSYC4802-20134	0.98	Block	exp	201	20131016.110226	diff	100	diff	1	1179
24	20	F	PSYC4802-20134	0.98	Block	exp	202	20131016.110229	diff	60	diff	1	845
24	20	F	PSYC4802-20134	0.98	Block	exp	203	20131016.110232	diff	100	same	0	1096
24	20	F	PSYC4802-20134	0.98	Block	exp	204	20131016.110235	diff	60	diff	1	1806
24	20	F	PSYC4802-20134	0.98	Block	exp	205	20131016.110239	diff	20	diff	1	715
24	20	F	PSYC4802-20134	0.98	Block	exp	206	20131016.110242	same	100	same	1	1238
24	20	F	PSYC4802-20134	0.98	Block	exp	207	20131016.110245	same	60	same	1	1507
24	20	F	PSYC4802-20134	0.98	Block	exp	208	20131016.110249	same	20	same	1	622
24	20	F	PSYC4802-20134	0.98	Block	exp	209	20131016.110251	diff	100	diff	1	674
24	20	F	PSYC4802-20134	0.98	Block	exp	210	20131016.110254	same	20	same	1	558
24	20	F	PSYC4802-20134	0.98	Block	exp	211	20131016.110256	diff	100	diff	1	962
24	20	F	PSYC4802-20134	0.98	Block	exp	212	20131016.110259	same	100	same	1	768
24	20	F	PSYC4802-20134	0.98	Block	exp	213	20131016.110302	same	100	same	1	1337
24	20	F	PSYC4802-20134	0.98	Block	exp	214	20131016.110305	same	20	same	1	669
24	20	F	PSYC4802-20134	0.98	Block	exp	215	20131016.110308	same	60	same	1	862
24	20	F	PSYC4802-20134	0.98	Block	exp	216	20131016.110311	diff	20	diff	1	1402
24	20	F	PSYC4802-20134	0.98	Block	exp	217	20131016.110314	diff	100	diff	1	1161
24	20	F	PSYC4802-20134	0.98	Block	exp	218	20131016.110318	diff	60	diff	1	1032
24	20	F	PSYC4802-20134	0.98	Block	exp	219	20131016.110321	same	20	same	1	628
24	20	F	PSYC4802-20134	0.98	Block	exp	220	20131016.110323	same	20	same	1	763
24	20	F	PSYC4802-20134	0.98	Block	exp	221	20131016.110326	diff	20	diff	1	757
24	20	F	PSYC4802-20134	0.98	Block	exp	222	20131016.110329	same	20	same	1	903
24	20	F	PSYC4802-20134	0.98	Block	exp	223	20131016.110332	same	20	same	1	768
24	20	F	PSYC4802-20134	0.98	Block	exp	224	20131016.110335	diff	60	diff	1	810
24	20	F	PSYC4802-20134	0.98	Block	exp	225	20131016.110338	diff	60	diff	1	833
24	20	F	PSYC4802-20134	0.98	Block	exp	226	20131016.110340	same	20	same	1	645
24	20	F	PSYC4802-20134	0.98	Block	exp	227	20131016.110343	same	20	same	1	798
24	20	F	PSYC4802-20134	0.98	Block	exp	228	20131016.110346	diff	100	diff	1	1162
24	20	F	PSYC4802-20134	0.98	Block	exp	229	20131016.110349	same	20	same	1	945
24	20	F	PSYC4802-20134	0.98	Block	exp	230	20131016.110352	same	100	same	1	1021
24	20	F	PSYC4802-20134	0.98	Block	exp	231	20131016.110355	diff	20	diff	1	856
24	20	F	PSYC4802-20134	0.98	Block	exp	232	20131016.110358	same	20	same	1	652
24	20	F	PSYC4802-20134	0.98	Block	exp	233	20131016.110401	same	60	same	1	739
24	20	F	PSYC4802-20134	0.98	Block	exp	234	20131016.110403	diff	60	diff	1	1225
24	20	F	PSYC4802-20134	0.98	Block	exp	235	20131016.110407	same	100	diff	0	1073
24	20	F	PSYC4802-20134	0.98	Block	exp	236	20131016.110410	same	100	same	1	1665
24	20	F	PSYC4802-20134	0.98	Block	exp	237	20131016.110413	diff	60	diff	1	827
24	20	F	PSYC4802-20134	0.98	Block	exp	238	20131016.110416	same	20	same	1	551
24	20	F	PSYC4802-20134	0.98	Block	exp	239	20131016.110419	diff	60	diff	1	897
24	20	F	PSYC4802-20134	0.98	Block	exp	240	20131016.110422	diff	20	diff	1	1097
24	20	F	PSYC4802-20134	0.98	Block	exp	241	20131016.110425	same	100	same	1	1173
24	20	F	PSYC4802-20134	0.98	Block	exp	242	20131016.110428	diff	60	diff	1	1067
24	20	F	PSYC4802-20134	0.98	Block	exp	243	20131016.110431	diff	60	diff	1	839
24	20	F	PSYC4802-20134	0.98	Block	exp	244	20131016.110434	same	60	same	1	845
24	20	F	PSYC4802-20134	0.98	Block	exp	245	20131016.110437	same	60	same	1	950
24	20	F	PSYC4802-20134	0.98	Block	exp	246	20131016.110440	same	60	same	1	617
24	20	F	PSYC4802-20134	0.98	Block	exp	247	20131016.110443	same	20	same	1	658
24	20	F	PSYC4802-20134	0.98	Block	exp	248	20131016.110445	diff	20	diff	1	1120
24	20	F	PSYC4802-20134	0.98	Block	exp	249	20131016.110448	diff	60	diff	1	1261
24	20	F	PSYC4802-20134	0.98	Block	exp	250	20131016.110452	same	60	same	1	909
24	20	F	PSYC4802-20134	0.98	Block	exp	251	20131016.110512	diff	100	diff	1	2069
24	20	F	PSYC4802-20134	0.98	Block	exp	252	20131016.110516	same	60	same	1	980
24	20	F	PSYC4802-20134	0.98	Block	exp	253	20131016.110519	same	20	same	1	523
24	20	F	PSYC4802-20134	0.98	Block	exp	254	20131016.110521	same	60	same	1	651
24	20	F	PSYC4802-20134	0.98	Block	exp	255	20131016.110524	same	20	same	1	945
24	20	F	PSYC4802-20134	0.98	Block	exp	256	20131016.110527	diff	60	diff	1	921
24	20	F	PSYC4802-20134	0.98	Block	exp	257	20131016.110530	diff	60	diff	1	1501
24	20	F	PSYC4802-20134	0.98	Block	exp	258	20131016.110533	diff	20	diff	1	704
24	20	F	PSYC4802-20134	0.98	Block	exp	259	20131016.110536	same	20	same	1	493
24	20	F	PSYC4802-20134	0.98	Block	exp	260	20131016.110539	same	60	same	1	1665
24	20	F	PSYC4802-20134	0.98	Block	exp	261	20131016.110542	diff	100	diff	1	792
24	20	F	PSYC4802-20134	0.98	Block	exp	262	20131016.110545	same	100	diff	0	1132
24	20	F	PSYC4802-20134	0.98	Block	exp	263	20131016.110548	same	100	same	1	1683
24	20	F	PSYC4802-20134	0.98	Block	exp	264	20131016.110552	diff	20	diff	1	803
24	20	F	PSYC4802-20134	0.98	Block	exp	265	20131016.110555	same	60	same	1	1495
24	20	F	PSYC4802-20134	0.98	Block	exp	266	20131016.110558	same	60	same	1	681
24	20	F	PSYC4802-20134	0.98	Block	exp	267	20131016.110601	same	60	same	1	1507
24	20	F	PSYC4802-20134	0.98	Block	exp	268	20131016.110604	same	100	same	1	1033
24	20	F	PSYC4802-20134	0.98	Block	exp	269	20131016.110607	same	20	same	1	1033
24	20	F	PSYC4802-20134	0.98	Block	exp	270	20131016.110610	diff	100	diff	1	1472
24	20	F	PSYC4802-20134	0.98	Block	exp	271	20131016.110614	same	100	same	1	862
24	20	F	PSYC4802-20134	0.98	Block	exp	272	20131016.110617	diff	20	diff	1	1226
24	20	F	PSYC4802-20134	0.98	Block	exp	273	20131016.110620	same	60	same	1	1103
24	20	F	PSYC4802-20134	0.98	Block	exp	274	20131016.110623	same	60	same	1	798
24	20	F	PSYC4802-20134	0.98	Block	exp	275	20131016.110626	same	100	same	1	897
24	20	F	PSYC4802-20134	0.98	Block	exp	276	20131016.110629	same	60	same	1	950
24	20	F	PSYC4802-20134	0.98	Block	exp	277	20131016.110632	diff	20	diff	1	910
24	20	F	PSYC4802-20134	0.98	Block	exp	278	20131016.110635	diff	60	diff	1	1109
24	20	F	PSYC4802-20134	0.98	Block	exp	279	20131016.110638	same	100	same	1	1067
24	20	F	PSYC4802-20134	0.98	Block	exp	280	20131016.110641	diff	60	same	0	845
24	20	F	PSYC4802-20134	0.98	Block	exp	281	20131016.110644	diff	100	diff	1	1390
24	20	F	PSYC4802-20134	0.98	Block	exp	282	20131016.110647	same	100	same	1	734
24	20	F	PSYC4802-20134	0.98	Block	exp	283	20131016.110650	diff	20	diff	1	1290
24	20	F	PSYC4802-20134	0.98	Block	exp	284	20131016.110653	diff	20	diff	1	2743
24	20	F	PSYC4802-20134	0.98	Block	exp	285	20131016.110658	diff	100	diff	1	1208
24	20	F	PSYC4802-20134	0.98	Block	exp	286	20131016.110701	same	20	same	1	921
24	20	F	PSYC4802-20134	0.98	Block	exp	287	20131016.110704	diff	100	diff	1	1601
24	20	F	PSYC4802-20134	0.98	Block	exp	288	20131016.110708	same	60	same	1	1196
24	20	F	PSYC4802-20134	0.98	Block	exp	289	20131016.110711	diff	20	diff	1	1185
24	20	F	PSYC4802-20134	0.98	Block	exp	290	20131016.110714	diff	100	diff	1	828
24	20	F	PSYC4802-20134	0.98	Block	exp	291	20131016.110717	diff	20	diff	1	763
24	20	F	PSYC4802-20134	0.98	Block	exp	292	20131016.110720	diff	100	diff	1	945
24	20	F	PSYC4802-20134	0.98	Block	exp	293	20131016.110723	same	20	same	1	838
24	20	F	PSYC4802-20134	0.98	Block	exp	294	20131016.110726	diff	20	diff	1	2310
24	20	F	PSYC4802-20134	0.98	Block	exp	295	20131016.110730	diff	60	diff	1	833
24	20	F	PSYC4802-20134	0.98	Block	exp	296	20131016.110733	diff	60	diff	1	733
24	20	F	PSYC4802-20134	0.98	Block	exp	297	20131016.110736	same	100	diff	0	868
24	20	F	PSYC4802-20134	0.98	Block	exp	298	20131016.110739	diff	100	diff	1	1009
24	20	F	PSYC4802-20134	0.98	Block	exp	299	20131016.110742	diff	100	diff	1	1021
24	20	F	PSYC4802-20134	0.98	Block	exp	300	20131016.110745	diff	20	diff	1	1232
