Subject	Age	Sex	Experiment	Version	Block	TrialType	Trial	Timestamp	SameDiff	Rotation	Response	Acc	RT
47	19	M	PSYC4802-20134	0.98	Block	practice	1	20131016.120333	same	60	same	1	2924
47	19	M	PSYC4802-20134	0.98	Block	practice	2	20131016.120338	diff	20	diff	1	1395
47	19	M	PSYC4802-20134	0.98	Block	practice	3	20131016.120341	same	20	same	1	1443
47	19	M	PSYC4802-20134	0.98	Block	practice	4	20131016.120344	same	100	diff	0	2140
47	19	M	PSYC4802-20134	0.98	Block	practice	5	20131016.120349	diff	100	same	0	2333
47	19	M	PSYC4802-20134	0.98	Block	practice	6	20131016.120353	diff	20	diff	1	18546
47	19	M	PSYC4802-20134	0.98	Block	practice	7	20131016.120413	same	100	same	1	2140
47	19	M	PSYC4802-20134	0.98	Block	practice	8	20131016.120418	same	60	same	1	3042
47	19	M	PSYC4802-20134	0.98	Block	practice	9	20131016.120423	diff	100	diff	1	1477
47	19	M	PSYC4802-20134	0.98	Block	practice	10	20131016.120426	diff	100	same	0	2550
47	19	M	PSYC4802-20134	0.98	Block	practice	11	20131016.120431	diff	60	diff	1	1812
47	19	M	PSYC4802-20134	0.98	Block	practice	12	20131016.120435	same	60	same	1	1401
47	19	M	PSYC4802-20134	0.98	Block	practice	13	20131016.120438	diff	60	diff	1	1507
47	19	M	PSYC4802-20134	0.98	Block	practice	14	20131016.120441	same	20	same	1	1279
47	19	M	PSYC4802-20134	0.98	Block	practice	15	20131016.120445	same	20	same	1	605
47	19	M	PSYC4802-20134	0.98	Block	practice	16	20131016.120447	same	20	same	1	2996
47	19	M	PSYC4802-20134	0.98	Block	practice	17	20131016.120452	diff	20	diff	1	1736
47	19	M	PSYC4802-20134	0.98	Block	practice	18	20131016.120456	diff	100	diff	1	1449
47	19	M	PSYC4802-20134	0.98	Block	practice	19	20131016.120500	same	20	same	1	944
47	19	M	PSYC4802-20134	0.98	Block	practice	20	20131016.120503	diff	60	diff	1	1015
47	19	M	PSYC4802-20134	0.98	Block	practice	21	20131016.120506	diff	20	diff	1	927
47	19	M	PSYC4802-20134	0.98	Block	practice	22	20131016.120509	diff	20	diff	1	1378
47	19	M	PSYC4802-20134	0.98	Block	practice	23	20131016.120512	same	100	same	1	1383
47	19	M	PSYC4802-20134	0.98	Block	practice	24	20131016.120516	same	60	diff	0	1202
47	19	M	PSYC4802-20134	0.98	Block	practice	25	20131016.120519	diff	100	diff	1	1717
47	19	M	PSYC4802-20134	0.98	Block	practice	26	20131016.120523	same	100	same	1	2931
47	19	M	PSYC4802-20134	0.98	Block	practice	27	20131016.120528	same	100	diff	0	780
47	19	M	PSYC4802-20134	0.98	Block	practice	28	20131016.120530	diff	60	diff	1	1085
47	19	M	PSYC4802-20134	0.98	Block	practice	29	20131016.120533	diff	60	diff	1	1379
47	19	M	PSYC4802-20134	0.98	Block	practice	30	20131016.120537	same	60	same	1	686
47	19	M	PSYC4802-20134	0.98	Block	exp	31	20131016.120540	same	100	diff	0	687
47	19	M	PSYC4802-20134	0.98	Block	exp	32	20131016.120542	same	100	same	1	851
47	19	M	PSYC4802-20134	0.98	Block	exp	33	20131016.120545	same	100	diff	0	1009
47	19	M	PSYC4802-20134	0.98	Block	exp	34	20131016.120548	diff	20	same	0	2322
47	19	M	PSYC4802-20134	0.98	Block	exp	35	20131016.120553	same	20	same	1	710
47	19	M	PSYC4802-20134	0.98	Block	exp	36	20131016.120555	diff	60	diff	1	991
47	19	M	PSYC4802-20134	0.98	Block	exp	37	20131016.120558	diff	20	diff	1	769
47	19	M	PSYC4802-20134	0.98	Block	exp	38	20131016.120601	diff	60	diff	1	869
47	19	M	PSYC4802-20134	0.98	Block	exp	39	20131016.120604	diff	100	diff	1	1512
47	19	M	PSYC4802-20134	0.98	Block	exp	40	20131016.120608	diff	100	diff	1	3862
47	19	M	PSYC4802-20134	0.98	Block	exp	41	20131016.120613	diff	60	same	0	734
47	19	M	PSYC4802-20134	0.98	Block	exp	42	20131016.120616	same	100	same	1	1993
47	19	M	PSYC4802-20134	0.98	Block	exp	43	20131016.120620	diff	20	diff	1	2497
47	19	M	PSYC4802-20134	0.98	Block	exp	44	20131016.120625	same	60	same	1	1993
47	19	M	PSYC4802-20134	0.98	Block	exp	45	20131016.120629	diff	60	diff	1	991
47	19	M	PSYC4802-20134	0.98	Block	exp	46	20131016.120632	same	100	diff	0	4572
47	19	M	PSYC4802-20134	0.98	Block	exp	47	20131016.120638	diff	100	diff	1	739
47	19	M	PSYC4802-20134	0.98	Block	exp	48	20131016.120641	diff	100	diff	1	1770
47	19	M	PSYC4802-20134	0.98	Block	exp	49	20131016.120645	diff	60	diff	1	3071
47	19	M	PSYC4802-20134	0.98	Block	exp	50	20131016.120650	same	20	same	1	938
47	19	M	PSYC4802-20134	0.98	Block	exp	51	20131016.120715	diff	20	same	0	1847
47	19	M	PSYC4802-20134	0.98	Block	exp	52	20131016.120719	diff	100	diff	1	874
47	19	M	PSYC4802-20134	0.98	Block	exp	53	20131016.120722	same	100	same	1	2129
47	19	M	PSYC4802-20134	0.98	Block	exp	54	20131016.120726	diff	60	diff	1	1015
47	19	M	PSYC4802-20134	0.98	Block	exp	55	20131016.120729	same	100	same	1	1712
47	19	M	PSYC4802-20134	0.98	Block	exp	56	20131016.120733	diff	60	diff	1	1349
47	19	M	PSYC4802-20134	0.98	Block	exp	57	20131016.120737	diff	60	diff	1	1021
47	19	M	PSYC4802-20134	0.98	Block	exp	58	20131016.120740	same	60	same	1	2070
47	19	M	PSYC4802-20134	0.98	Block	exp	59	20131016.120744	diff	100	diff	1	886
47	19	M	PSYC4802-20134	0.98	Block	exp	60	20131016.120747	same	20	same	1	1279
47	19	M	PSYC4802-20134	0.98	Block	exp	61	20131016.120750	same	100	diff	0	944
47	19	M	PSYC4802-20134	0.98	Block	exp	62	20131016.120753	diff	20	diff	1	1285
47	19	M	PSYC4802-20134	0.98	Block	exp	63	20131016.120757	diff	60	diff	1	798
47	19	M	PSYC4802-20134	0.98	Block	exp	64	20131016.120759	same	20	same	1	1038
47	19	M	PSYC4802-20134	0.98	Block	exp	65	20131016.120802	same	20	same	1	798
47	19	M	PSYC4802-20134	0.98	Block	exp	66	20131016.120805	same	100	diff	0	663
47	19	M	PSYC4802-20134	0.98	Block	exp	67	20131016.120808	diff	20	diff	1	774
47	19	M	PSYC4802-20134	0.98	Block	exp	68	20131016.120811	diff	20	diff	1	1489
47	19	M	PSYC4802-20134	0.98	Block	exp	69	20131016.120814	same	100	same	1	716
47	19	M	PSYC4802-20134	0.98	Block	exp	70	20131016.120817	diff	100	diff	1	1560
47	19	M	PSYC4802-20134	0.98	Block	exp	71	20131016.120820	same	100	same	1	2451
47	19	M	PSYC4802-20134	0.98	Block	exp	72	20131016.120825	same	60	same	1	652
47	19	M	PSYC4802-20134	0.98	Block	exp	73	20131016.120827	diff	60	diff	1	774
47	19	M	PSYC4802-20134	0.98	Block	exp	74	20131016.120830	diff	60	diff	1	2292
47	19	M	PSYC4802-20134	0.98	Block	exp	75	20131016.120835	same	100	same	1	862
47	19	M	PSYC4802-20134	0.98	Block	exp	76	20131016.120837	diff	20	diff	1	1389
47	19	M	PSYC4802-20134	0.98	Block	exp	77	20131016.120841	same	100	diff	0	1114
47	19	M	PSYC4802-20134	0.98	Block	exp	78	20131016.120844	diff	20	diff	1	1126
47	19	M	PSYC4802-20134	0.98	Block	exp	79	20131016.120847	diff	60	diff	1	1290
47	19	M	PSYC4802-20134	0.98	Block	exp	80	20131016.120851	diff	20	diff	1	1143
47	19	M	PSYC4802-20134	0.98	Block	exp	81	20131016.120854	diff	100	diff	1	904
47	19	M	PSYC4802-20134	0.98	Block	exp	82	20131016.120857	diff	20	same	0	3077
47	19	M	PSYC4802-20134	0.98	Block	exp	83	20131016.120902	same	100	same	1	798
47	19	M	PSYC4802-20134	0.98	Block	exp	84	20131016.120905	same	20	same	1	804
47	19	M	PSYC4802-20134	0.98	Block	exp	85	20131016.120908	diff	20	diff	1	1097
47	19	M	PSYC4802-20134	0.98	Block	exp	86	20131016.120911	same	20	same	1	1284
47	19	M	PSYC4802-20134	0.98	Block	exp	87	20131016.120914	diff	20	same	0	1308
47	19	M	PSYC4802-20134	0.98	Block	exp	88	20131016.120917	same	20	same	1	2427
47	19	M	PSYC4802-20134	0.98	Block	exp	89	20131016.120922	same	20	same	1	610
47	19	M	PSYC4802-20134	0.98	Block	exp	90	20131016.120924	same	100	diff	0	200
47	19	M	PSYC4802-20134	0.98	Block	exp	91	20131016.120927	diff	100	same	0	53
47	19	M	PSYC4802-20134	0.98	Block	exp	92	20131016.120929	diff	100	same	0	716
47	19	M	PSYC4802-20134	0.98	Block	exp	93	20131016.120931	diff	20	diff	1	757
47	19	M	PSYC4802-20134	0.98	Block	exp	94	20131016.120934	diff	60	diff	1	1302
47	19	M	PSYC4802-20134	0.98	Block	exp	95	20131016.120937	same	100	same	1	1143
47	19	M	PSYC4802-20134	0.98	Block	exp	96	20131016.120941	same	20	same	1	757
47	19	M	PSYC4802-20134	0.98	Block	exp	97	20131016.120943	same	60	diff	0	804
47	19	M	PSYC4802-20134	0.98	Block	exp	98	20131016.120946	same	20	same	1	810
47	19	M	PSYC4802-20134	0.98	Block	exp	99	20131016.120949	diff	100	diff	1	921
47	19	M	PSYC4802-20134	0.98	Block	exp	100	20131016.120952	same	20	same	1	628
47	19	M	PSYC4802-20134	0.98	Block	exp	101	20131016.121131	diff	60	diff	1	1630
47	19	M	PSYC4802-20134	0.98	Block	exp	102	20131016.121135	diff	20	diff	1	1260
47	19	M	PSYC4802-20134	0.98	Block	exp	103	20131016.121138	same	100	same	1	839
47	19	M	PSYC4802-20134	0.98	Block	exp	104	20131016.121141	same	60	same	1	845
47	19	M	PSYC4802-20134	0.98	Block	exp	105	20131016.121144	same	20	same	1	541
47	19	M	PSYC4802-20134	0.98	Block	exp	106	20131016.121146	same	100	same	1	535
47	19	M	PSYC4802-20134	0.98	Block	exp	107	20131016.121149	diff	60	diff	1	675
47	19	M	PSYC4802-20134	0.98	Block	exp	108	20131016.121152	diff	100	diff	1	675
47	19	M	PSYC4802-20134	0.98	Block	exp	109	20131016.121154	same	60	diff	0	1026
47	19	M	PSYC4802-20134	0.98	Block	exp	110	20131016.121157	same	60	same	1	2128
47	19	M	PSYC4802-20134	0.98	Block	exp	111	20131016.121201	same	60	same	1	1408
47	19	M	PSYC4802-20134	0.98	Block	exp	112	20131016.121205	diff	20	diff	1	1894
47	19	M	PSYC4802-20134	0.98	Block	exp	113	20131016.121209	same	20	same	1	1179
47	19	M	PSYC4802-20134	0.98	Block	exp	114	20131016.121212	same	20	same	1	868
47	19	M	PSYC4802-20134	0.98	Block	exp	115	20131016.121215	same	20	same	1	950
47	19	M	PSYC4802-20134	0.98	Block	exp	116	20131016.121218	diff	60	diff	1	499
47	19	M	PSYC4802-20134	0.98	Block	exp	117	20131016.121220	same	100	same	1	1244
47	19	M	PSYC4802-20134	0.98	Block	exp	118	20131016.121224	same	60	same	1	716
47	19	M	PSYC4802-20134	0.98	Block	exp	119	20131016.121226	same	100	same	1	1413
47	19	M	PSYC4802-20134	0.98	Block	exp	120	20131016.121230	diff	100	diff	1	3124
47	19	M	PSYC4802-20134	0.98	Block	exp	121	20131016.121235	same	60	same	1	969
47	19	M	PSYC4802-20134	0.98	Block	exp	122	20131016.121238	same	60	same	1	581
47	19	M	PSYC4802-20134	0.98	Block	exp	123	20131016.121240	same	60	diff	0	1190
47	19	M	PSYC4802-20134	0.98	Block	exp	124	20131016.121244	diff	20	diff	1	1537
47	19	M	PSYC4802-20134	0.98	Block	exp	125	20131016.121247	same	100	same	1	2503
47	19	M	PSYC4802-20134	0.98	Block	exp	126	20131016.121252	same	60	same	1	1290
47	19	M	PSYC4802-20134	0.98	Block	exp	127	20131016.121255	diff	100	diff	1	1214
47	19	M	PSYC4802-20134	0.98	Block	exp	128	20131016.121258	same	100	same	1	2679
47	19	M	PSYC4802-20134	0.98	Block	exp	129	20131016.121303	same	60	same	1	815
47	19	M	PSYC4802-20134	0.98	Block	exp	130	20131016.121306	diff	100	diff	1	646
47	19	M	PSYC4802-20134	0.98	Block	exp	131	20131016.121308	same	100	same	1	793
47	19	M	PSYC4802-20134	0.98	Block	exp	132	20131016.121311	diff	60	diff	1	564
47	19	M	PSYC4802-20134	0.98	Block	exp	133	20131016.121314	same	60	same	1	458
47	19	M	PSYC4802-20134	0.98	Block	exp	134	20131016.121316	same	60	same	1	692
47	19	M	PSYC4802-20134	0.98	Block	exp	135	20131016.121319	diff	100	diff	1	540
47	19	M	PSYC4802-20134	0.98	Block	exp	136	20131016.121321	same	60	diff	0	634
47	19	M	PSYC4802-20134	0.98	Block	exp	137	20131016.121324	diff	20	diff	1	651
47	19	M	PSYC4802-20134	0.98	Block	exp	138	20131016.121327	same	100	same	1	628
47	19	M	PSYC4802-20134	0.98	Block	exp	139	20131016.121329	diff	20	diff	1	739
47	19	M	PSYC4802-20134	0.98	Block	exp	140	20131016.121332	same	60	same	1	482
47	19	M	PSYC4802-20134	0.98	Block	exp	141	20131016.121335	diff	100	diff	1	1566
47	19	M	PSYC4802-20134	0.98	Block	exp	142	20131016.121338	same	60	same	1	535
47	19	M	PSYC4802-20134	0.98	Block	exp	143	20131016.121341	diff	20	diff	1	652
47	19	M	PSYC4802-20134	0.98	Block	exp	144	20131016.121344	diff	100	diff	1	757
47	19	M	PSYC4802-20134	0.98	Block	exp	145	20131016.121346	diff	100	diff	1	1080
47	19	M	PSYC4802-20134	0.98	Block	exp	146	20131016.121350	same	100	same	1	1706
47	19	M	PSYC4802-20134	0.98	Block	exp	147	20131016.121353	diff	100	diff	1	1378
47	19	M	PSYC4802-20134	0.98	Block	exp	148	20131016.121357	same	60	same	1	634
47	19	M	PSYC4802-20134	0.98	Block	exp	149	20131016.121359	same	20	same	1	711
47	19	M	PSYC4802-20134	0.98	Block	exp	150	20131016.121402	same	60	same	1	734
47	19	M	PSYC4802-20134	0.98	Block	exp	151	20131016.121438	diff	20	diff	1	856
47	19	M	PSYC4802-20134	0.98	Block	exp	152	20131016.121441	same	20	same	1	617
47	19	M	PSYC4802-20134	0.98	Block	exp	153	20131016.121444	same	60	same	1	440
47	19	M	PSYC4802-20134	0.98	Block	exp	154	20131016.121446	diff	20	diff	1	464
47	19	M	PSYC4802-20134	0.98	Block	exp	155	20131016.121449	same	100	same	1	569
47	19	M	PSYC4802-20134	0.98	Block	exp	156	20131016.121451	diff	20	diff	1	540
47	19	M	PSYC4802-20134	0.98	Block	exp	157	20131016.121454	same	20	same	1	775
47	19	M	PSYC4802-20134	0.98	Block	exp	158	20131016.121456	same	60	same	1	704
47	19	M	PSYC4802-20134	0.98	Block	exp	159	20131016.121459	same	100	diff	0	587
47	19	M	PSYC4802-20134	0.98	Block	exp	160	20131016.121502	same	20	same	1	692
47	19	M	PSYC4802-20134	0.98	Block	exp	161	20131016.121505	diff	20	diff	1	570
47	19	M	PSYC4802-20134	0.98	Block	exp	162	20131016.121507	diff	100	diff	1	582
47	19	M	PSYC4802-20134	0.98	Block	exp	163	20131016.121510	same	60	same	1	1360
47	19	M	PSYC4802-20134	0.98	Block	exp	164	20131016.121513	same	60	same	1	657
47	19	M	PSYC4802-20134	0.98	Block	exp	165	20131016.121516	diff	100	same	0	593
47	19	M	PSYC4802-20134	0.98	Block	exp	166	20131016.121519	same	20	same	1	516
47	19	M	PSYC4802-20134	0.98	Block	exp	167	20131016.121521	diff	60	same	0	956
47	19	M	PSYC4802-20134	0.98	Block	exp	168	20131016.121524	diff	60	diff	1	816
47	19	M	PSYC4802-20134	0.98	Block	exp	169	20131016.121527	same	20	same	1	605
47	19	M	PSYC4802-20134	0.98	Block	exp	170	20131016.121530	diff	60	diff	1	605
47	19	M	PSYC4802-20134	0.98	Block	exp	171	20131016.121532	same	60	same	1	933
47	19	M	PSYC4802-20134	0.98	Block	exp	172	20131016.121535	same	100	diff	0	733
47	19	M	PSYC4802-20134	0.98	Block	exp	173	20131016.121538	diff	100	same	0	804
47	19	M	PSYC4802-20134	0.98	Block	exp	174	20131016.121541	same	60	same	1	640
47	19	M	PSYC4802-20134	0.98	Block	exp	175	20131016.121543	same	100	same	1	716
47	19	M	PSYC4802-20134	0.98	Block	exp	176	20131016.121546	same	60	diff	0	951
47	19	M	PSYC4802-20134	0.98	Block	exp	177	20131016.121549	same	20	same	1	581
47	19	M	PSYC4802-20134	0.98	Block	exp	178	20131016.121552	same	60	same	1	564
47	19	M	PSYC4802-20134	0.98	Block	exp	179	20131016.121554	same	20	same	1	593
47	19	M	PSYC4802-20134	0.98	Block	exp	180	20131016.121557	diff	100	same	0	675
47	19	M	PSYC4802-20134	0.98	Block	exp	181	20131016.121600	diff	60	diff	1	634
47	19	M	PSYC4802-20134	0.98	Block	exp	182	20131016.121602	diff	20	diff	1	786
47	19	M	PSYC4802-20134	0.98	Block	exp	183	20131016.121605	diff	60	same	0	581
47	19	M	PSYC4802-20134	0.98	Block	exp	184	20131016.121608	same	100	same	1	552
47	19	M	PSYC4802-20134	0.98	Block	exp	185	20131016.121610	same	20	same	1	452
47	19	M	PSYC4802-20134	0.98	Block	exp	186	20131016.121613	diff	60	diff	1	1196
47	19	M	PSYC4802-20134	0.98	Block	exp	187	20131016.121616	diff	60	diff	1	692
47	19	M	PSYC4802-20134	0.98	Block	exp	188	20131016.121619	same	20	same	1	634
47	19	M	PSYC4802-20134	0.98	Block	exp	189	20131016.121621	same	20	same	1	551
47	19	M	PSYC4802-20134	0.98	Block	exp	190	20131016.121624	same	20	same	1	464
47	19	M	PSYC4802-20134	0.98	Block	exp	191	20131016.121626	diff	20	diff	1	534
47	19	M	PSYC4802-20134	0.98	Block	exp	192	20131016.121629	same	20	same	1	640
47	19	M	PSYC4802-20134	0.98	Block	exp	193	20131016.121632	same	60	same	1	622
47	19	M	PSYC4802-20134	0.98	Block	exp	194	20131016.121634	diff	100	diff	1	598
47	19	M	PSYC4802-20134	0.98	Block	exp	195	20131016.121637	diff	100	diff	1	1015
47	19	M	PSYC4802-20134	0.98	Block	exp	196	20131016.121640	diff	60	same	0	745
47	19	M	PSYC4802-20134	0.98	Block	exp	197	20131016.121643	diff	60	diff	1	605
47	19	M	PSYC4802-20134	0.98	Block	exp	198	20131016.121645	same	60	same	1	986
47	19	M	PSYC4802-20134	0.98	Block	exp	199	20131016.121648	diff	60	diff	1	740
47	19	M	PSYC4802-20134	0.98	Block	exp	200	20131016.121651	same	20	same	1	581
47	19	M	PSYC4802-20134	0.98	Block	exp	201	20131016.121659	diff	20	diff	1	534
47	19	M	PSYC4802-20134	0.98	Block	exp	202	20131016.121701	diff	20	diff	1	774
47	19	M	PSYC4802-20134	0.98	Block	exp	203	20131016.121704	same	100	same	1	546
47	19	M	PSYC4802-20134	0.98	Block	exp	204	20131016.121707	same	60	same	1	745
47	19	M	PSYC4802-20134	0.98	Block	exp	205	20131016.121709	diff	60	same	0	546
47	19	M	PSYC4802-20134	0.98	Block	exp	206	20131016.121712	diff	100	diff	1	704
47	19	M	PSYC4802-20134	0.98	Block	exp	207	20131016.121715	diff	60	diff	1	815
47	19	M	PSYC4802-20134	0.98	Block	exp	208	20131016.121718	same	20	same	1	552
47	19	M	PSYC4802-20134	0.98	Block	exp	209	20131016.121720	diff	20	diff	1	598
47	19	M	PSYC4802-20134	0.98	Block	exp	210	20131016.121723	diff	20	diff	1	646
47	19	M	PSYC4802-20134	0.98	Block	exp	211	20131016.121725	same	100	same	1	529
47	19	M	PSYC4802-20134	0.98	Block	exp	212	20131016.121728	diff	20	diff	1	523
47	19	M	PSYC4802-20134	0.98	Block	exp	213	20131016.121731	same	60	diff	0	558
47	19	M	PSYC4802-20134	0.98	Block	exp	214	20131016.121733	diff	100	diff	1	951
47	19	M	PSYC4802-20134	0.98	Block	exp	215	20131016.121736	same	100	same	1	921
47	19	M	PSYC4802-20134	0.98	Block	exp	216	20131016.121739	diff	100	diff	1	1472
47	19	M	PSYC4802-20134	0.98	Block	exp	217	20131016.121743	same	60	same	1	1179
47	19	M	PSYC4802-20134	0.98	Block	exp	218	20131016.121746	same	100	diff	0	991
47	19	M	PSYC4802-20134	0.98	Block	exp	219	20131016.121749	diff	100	diff	1	956
47	19	M	PSYC4802-20134	0.98	Block	exp	220	20131016.121752	same	60	same	1	633
47	19	M	PSYC4802-20134	0.98	Block	exp	221	20131016.121754	diff	20	diff	1	628
47	19	M	PSYC4802-20134	0.98	Block	exp	222	20131016.121757	same	20	same	1	2315
47	19	M	PSYC4802-20134	0.98	Block	exp	223	20131016.121801	same	60	same	1	3440
47	19	M	PSYC4802-20134	0.98	Block	exp	224	20131016.121807	diff	60	diff	1	2421
47	19	M	PSYC4802-20134	0.98	Block	exp	225	20131016.121811	diff	60	diff	1	962
47	19	M	PSYC4802-20134	0.98	Block	exp	226	20131016.121814	diff	100	diff	1	1178
47	19	M	PSYC4802-20134	0.98	Block	exp	227	20131016.121818	same	20	same	1	856
47	19	M	PSYC4802-20134	0.98	Block	exp	228	20131016.121820	same	100	65	-3	259
47	19	M	PSYC4802-20134	0.98	Block	exp	229	20131016.121823	diff	100	diff	1	1501
47	19	M	PSYC4802-20134	0.98	Block	exp	230	20131016.121826	same	60	same	1	1665
47	19	M	PSYC4802-20134	0.98	Block	exp	231	20131016.121830	diff	60	diff	1	2392
47	19	M	PSYC4802-20134	0.98	Block	exp	232	20131016.121834	same	20	same	1	657
47	19	M	PSYC4802-20134	0.98	Block	exp	233	20131016.121837	diff	100	diff	1	4958
47	19	M	PSYC4802-20134	0.98	Block	exp	234	20131016.121844	diff	60	diff	1	2057
47	19	M	PSYC4802-20134	0.98	Block	exp	235	20131016.121848	diff	100	diff	1	8649
47	19	M	PSYC4802-20134	0.98	Block	exp	236	20131016.121859	diff	60	diff	1	4671
47	19	M	PSYC4802-20134	0.98	Block	exp	237	20131016.121906	same	100	same	1	669
47	19	M	PSYC4802-20134	0.98	Block	exp	238	20131016.121908	same	100	same	1	740
47	19	M	PSYC4802-20134	0.98	Block	exp	239	20131016.121911	diff	100	diff	1	1032
47	19	M	PSYC4802-20134	0.98	Block	exp	240	20131016.121914	diff	60	diff	1	757
47	19	M	PSYC4802-20134	0.98	Block	exp	241	20131016.121917	diff	100	diff	1	2368
47	19	M	PSYC4802-20134	0.98	Block	exp	242	20131016.121921	same	60	same	1	1091
47	19	M	PSYC4802-20134	0.98	Block	exp	243	20131016.121925	diff	20	diff	1	2116
47	19	M	PSYC4802-20134	0.98	Block	exp	244	20131016.121929	diff	60	diff	1	1718
47	19	M	PSYC4802-20134	0.98	Block	exp	245	20131016.121932	diff	20	diff	1	1442
47	19	M	PSYC4802-20134	0.98	Block	exp	246	20131016.121936	diff	60	same	0	1993
47	19	M	PSYC4802-20134	0.98	Block	exp	247	20131016.121940	diff	20	diff	1	1619
47	19	M	PSYC4802-20134	0.98	Block	exp	248	20131016.121943	diff	60	diff	1	634
47	19	M	PSYC4802-20134	0.98	Block	exp	249	20131016.121946	diff	100	diff	1	698
47	19	M	PSYC4802-20134	0.98	Block	exp	250	20131016.121949	diff	60	diff	1	1454
47	19	M	PSYC4802-20134	0.98	Block	exp	251	20131016.122001	diff	20	diff	1	1454
47	19	M	PSYC4802-20134	0.98	Block	exp	252	20131016.122004	same	20	same	1	1600
47	19	M	PSYC4802-20134	0.98	Block	exp	253	20131016.122008	diff	100	diff	1	698
47	19	M	PSYC4802-20134	0.98	Block	exp	254	20131016.122010	diff	100	diff	1	1970
47	19	M	PSYC4802-20134	0.98	Block	exp	255	20131016.122014	same	20	diff	0	939
47	19	M	PSYC4802-20134	0.98	Block	exp	256	20131016.122017	same	20	same	1	891
47	19	M	PSYC4802-20134	0.98	Block	exp	257	20131016.122020	diff	20	diff	1	739
47	19	M	PSYC4802-20134	0.98	Block	exp	258	20131016.122023	same	100	same	1	6305
47	19	M	PSYC4802-20134	0.98	Block	exp	259	20131016.122031	same	20	same	1	1026
47	19	M	PSYC4802-20134	0.98	Block	exp	260	20131016.122034	diff	20	diff	1	645
47	19	M	PSYC4802-20134	0.98	Block	exp	261	20131016.122037	diff	60	same	0	1425
47	19	M	PSYC4802-20134	0.98	Block	exp	262	20131016.122041	same	100	same	1	3241
47	19	M	PSYC4802-20134	0.98	Block	exp	263	20131016.122046	diff	20	diff	1	4894
47	19	M	PSYC4802-20134	0.98	Block	exp	264	20131016.122053	diff	20	diff	1	827
47	19	M	PSYC4802-20134	0.98	Block	exp	265	20131016.122055	diff	20	same	0	1056
47	19	M	PSYC4802-20134	0.98	Block	exp	266	20131016.122059	diff	100	diff	1	1273
47	19	M	PSYC4802-20134	0.98	Block	exp	267	20131016.122102	diff	60	diff	1	822
47	19	M	PSYC4802-20134	0.98	Block	exp	268	20131016.122105	same	20	same	1	646
47	19	M	PSYC4802-20134	0.98	Block	exp	269	20131016.122107	diff	20	diff	1	692
47	19	M	PSYC4802-20134	0.98	Block	exp	270	20131016.122110	same	100	same	1	734
47	19	M	PSYC4802-20134	0.98	Block	exp	271	20131016.122113	same	60	diff	0	511
47	19	M	PSYC4802-20134	0.98	Block	exp	272	20131016.122115	diff	100	same	0	1612
47	19	M	PSYC4802-20134	0.98	Block	exp	273	20131016.122119	diff	100	diff	1	569
47	19	M	PSYC4802-20134	0.98	Block	exp	274	20131016.122121	diff	60	same	0	446
47	19	M	PSYC4802-20134	0.98	Block	exp	275	20131016.122124	diff	20	diff	1	66
47	19	M	PSYC4802-20134	0.98	Block	exp	276	20131016.122126	same	20	diff	0	177
47	19	M	PSYC4802-20134	0.98	Block	exp	277	20131016.122128	diff	60	diff	1	651
47	19	M	PSYC4802-20134	0.98	Block	exp	278	20131016.122131	same	20	same	1	552
47	19	M	PSYC4802-20134	0.98	Block	exp	279	20131016.122133	same	60	diff	0	264
47	19	M	PSYC4802-20134	0.98	Block	exp	280	20131016.122135	same	60	same	1	616
47	19	M	PSYC4802-20134	0.98	Block	exp	281	20131016.122138	same	60	diff	0	511
47	19	M	PSYC4802-20134	0.98	Block	exp	282	20131016.122141	same	60	diff	0	781
47	19	M	PSYC4802-20134	0.98	Block	exp	283	20131016.122143	diff	60	diff	1	786
47	19	M	PSYC4802-20134	0.98	Block	exp	284	20131016.122146	same	20	same	1	617
47	19	M	PSYC4802-20134	0.98	Block	exp	285	20131016.122149	same	60	same	1	651
47	19	M	PSYC4802-20134	0.98	Block	exp	286	20131016.122151	diff	100	diff	1	909
47	19	M	PSYC4802-20134	0.98	Block	exp	287	20131016.122154	diff	100	diff	1	979
47	19	M	PSYC4802-20134	0.98	Block	exp	288	20131016.122157	diff	20	diff	1	1185
47	19	M	PSYC4802-20134	0.98	Block	exp	289	20131016.122200	same	100	diff	0	839
47	19	M	PSYC4802-20134	0.98	Block	exp	290	20131016.122203	same	60	same	1	763
47	19	M	PSYC4802-20134	0.98	Block	exp	291	20131016.122206	same	100	diff	0	657
47	19	M	PSYC4802-20134	0.98	Block	exp	292	20131016.122209	diff	20	diff	1	869
47	19	M	PSYC4802-20134	0.98	Block	exp	293	20131016.122211	same	20	same	1	645
47	19	M	PSYC4802-20134	0.98	Block	exp	294	20131016.122214	same	100	diff	0	1308
47	19	M	PSYC4802-20134	0.98	Block	exp	295	20131016.122217	same	100	diff	0	1337
47	19	M	PSYC4802-20134	0.98	Block	exp	296	20131016.122221	same	20	same	1	558
47	19	M	PSYC4802-20134	0.98	Block	exp	297	20131016.122223	same	20	same	1	675
47	19	M	PSYC4802-20134	0.98	Block	exp	298	20131016.122226	same	100	diff	0	593
47	19	M	PSYC4802-20134	0.98	Block	exp	299	20131016.122228	diff	100	same	0	1
47	19	M	PSYC4802-20134	0.98	Block	exp	300	20131016.122231	diff	60	diff	1	1
