Subject	Age	Sex	Experiment	Version	Block	TrialType	Trial	Timestamp	SameDiff	Rotation	Response	Acc	RT
87	18	F	PSYC4802-20134	0.98	Block	practice	1	20131023.112908	diff	20	same	0	2029
87	18	F	PSYC4802-20134	0.98	Block	practice	2	20131023.112912	same	100	same	1	1759
87	18	F	PSYC4802-20134	0.98	Block	practice	3	20131023.112915	same	60	same	1	910
87	18	F	PSYC4802-20134	0.98	Block	practice	4	20131023.112918	diff	20	same	0	681
87	18	F	PSYC4802-20134	0.98	Block	practice	5	20131023.112921	diff	60	diff	1	2329
87	18	F	PSYC4802-20134	0.98	Block	practice	6	20131023.112925	same	20	same	1	1940
87	18	F	PSYC4802-20134	0.98	Block	practice	7	20131023.112929	same	100	diff	0	3013
87	18	F	PSYC4802-20134	0.98	Block	practice	8	20131023.112934	same	100	diff	0	1184
87	18	F	PSYC4802-20134	0.98	Block	practice	9	20131023.112938	same	60	same	1	698
87	18	F	PSYC4802-20134	0.98	Block	practice	10	20131023.112940	diff	60	same	0	845
87	18	F	PSYC4802-20134	0.98	Block	practice	11	20131023.112943	diff	60	same	0	798
87	18	F	PSYC4802-20134	0.98	Block	practice	12	20131023.112946	diff	20	diff	1	1126
87	18	F	PSYC4802-20134	0.98	Block	practice	13	20131023.112949	diff	100	same	0	833
87	18	F	PSYC4802-20134	0.98	Block	practice	14	20131023.112952	diff	100	same	0	798
87	18	F	PSYC4802-20134	0.98	Block	practice	15	20131023.112955	same	20	same	1	763
87	18	F	PSYC4802-20134	0.98	Block	practice	16	20131023.112958	diff	100	diff	1	1707
87	18	F	PSYC4802-20134	0.98	Block	practice	17	20131023.113001	diff	60	diff	1	3393
87	18	F	PSYC4802-20134	0.98	Block	practice	18	20131023.113007	diff	60	diff	1	1800
87	18	F	PSYC4802-20134	0.98	Block	practice	19	20131023.113011	same	20	diff	0	740
87	18	F	PSYC4802-20134	0.98	Block	practice	20	20131023.113013	same	100	diff	0	1021
87	18	F	PSYC4802-20134	0.98	Block	practice	21	20131023.113017	diff	20	diff	1	1073
87	18	F	PSYC4802-20134	0.98	Block	practice	22	20131023.113020	diff	100	same	0	1050
87	18	F	PSYC4802-20134	0.98	Block	practice	23	20131023.113023	same	20	diff	0	1202
87	18	F	PSYC4802-20134	0.98	Block	practice	24	20131023.113026	diff	20	same	0	804
87	18	F	PSYC4802-20134	0.98	Block	practice	25	20131023.113029	same	60	same	1	839
87	18	F	PSYC4802-20134	0.98	Block	practice	26	20131023.113032	diff	100	diff	1	646
87	18	F	PSYC4802-20134	0.98	Block	practice	27	20131023.113034	same	60	same	1	716
87	18	F	PSYC4802-20134	0.98	Block	practice	28	20131023.113037	same	100	diff	0	780
87	18	F	PSYC4802-20134	0.98	Block	practice	29	20131023.113040	same	20	diff	0	1061
87	18	F	PSYC4802-20134	0.98	Block	practice	30	20131023.113043	same	60	diff	0	980
87	18	F	PSYC4802-20134	0.98	Block	exp	31	20131023.113046	same	60	diff	0	3095
87	18	F	PSYC4802-20134	0.98	Block	exp	32	20131023.113051	same	100	diff	0	2075
87	18	F	PSYC4802-20134	0.98	Block	exp	33	20131023.113055	diff	20	diff	1	2427
87	18	F	PSYC4802-20134	0.98	Block	exp	34	20131023.113059	same	20	same	1	938
87	18	F	PSYC4802-20134	0.98	Block	exp	35	20131023.113102	diff	100	diff	1	1213
87	18	F	PSYC4802-20134	0.98	Block	exp	36	20131023.113106	diff	20	diff	1	1559
87	18	F	PSYC4802-20134	0.98	Block	exp	37	20131023.113109	diff	60	diff	1	1794
87	18	F	PSYC4802-20134	0.98	Block	exp	38	20131023.113113	diff	20	diff	1	1871
87	18	F	PSYC4802-20134	0.98	Block	exp	39	20131023.113117	diff	100	diff	1	2280
87	18	F	PSYC4802-20134	0.98	Block	exp	40	20131023.113121	same	60	diff	0	998
87	18	F	PSYC4802-20134	0.98	Block	exp	41	20131023.113124	same	100	diff	0	2282
87	18	F	PSYC4802-20134	0.98	Block	exp	42	20131023.113128	same	100	same	1	798
87	18	F	PSYC4802-20134	0.98	Block	exp	43	20131023.113131	same	100	diff	0	2099
87	18	F	PSYC4802-20134	0.98	Block	exp	44	20131023.113135	diff	60	same	0	3504
87	18	F	PSYC4802-20134	0.98	Block	exp	45	20131023.113141	same	60	diff	0	974
87	18	F	PSYC4802-20134	0.98	Block	exp	46	20131023.113144	same	100	same	1	1870
87	18	F	PSYC4802-20134	0.98	Block	exp	47	20131023.113148	same	60	same	1	898
87	18	F	PSYC4802-20134	0.98	Block	exp	48	20131023.113151	same	60	same	1	1038
87	18	F	PSYC4802-20134	0.98	Block	exp	49	20131023.113154	diff	20	diff	1	1167
87	18	F	PSYC4802-20134	0.98	Block	exp	50	20131023.113157	same	60	same	1	599
87	18	F	PSYC4802-20134	0.98	Block	exp	51	20131023.113203	diff	60	same	0	265
87	18	F	PSYC4802-20134	0.98	Block	exp	52	20131023.113205	diff	100	diff	1	201
87	18	F	PSYC4802-20134	0.98	Block	exp	53	20131023.113207	same	100	diff	0	1009
87	18	F	PSYC4802-20134	0.98	Block	exp	54	20131023.113210	same	20	same	1	839
87	18	F	PSYC4802-20134	0.98	Block	exp	55	20131023.113213	same	60	same	1	1096
87	18	F	PSYC4802-20134	0.98	Block	exp	56	20131023.113216	diff	100	diff	1	956
87	18	F	PSYC4802-20134	0.98	Block	exp	57	20131023.113219	same	100	same	1	892
87	18	F	PSYC4802-20134	0.98	Block	exp	58	20131023.113222	diff	100	diff	1	657
87	18	F	PSYC4802-20134	0.98	Block	exp	59	20131023.113225	diff	100	same	0	956
87	18	F	PSYC4802-20134	0.98	Block	exp	60	20131023.113228	diff	60	diff	1	651
87	18	F	PSYC4802-20134	0.98	Block	exp	61	20131023.113230	same	20	same	1	757
87	18	F	PSYC4802-20134	0.98	Block	exp	62	20131023.113233	diff	20	same	0	715
87	18	F	PSYC4802-20134	0.98	Block	exp	63	20131023.113236	same	20	same	1	1008
87	18	F	PSYC4802-20134	0.98	Block	exp	64	20131023.113239	diff	20	same	0	587
87	18	F	PSYC4802-20134	0.98	Block	exp	65	20131023.113242	same	60	diff	0	1677
87	18	F	PSYC4802-20134	0.98	Block	exp	66	20131023.113245	diff	20	same	0	827
87	18	F	PSYC4802-20134	0.98	Block	exp	67	20131023.113248	same	100	same	1	10267
87	18	F	PSYC4802-20134	0.98	Block	exp	68	20131023.113300	same	20	same	1	5620
87	18	F	PSYC4802-20134	0.98	Block	exp	69	20131023.113308	same	60	same	1	1806
87	18	F	PSYC4802-20134	0.98	Block	exp	70	20131023.113312	same	20	same	1	1033
87	18	F	PSYC4802-20134	0.98	Block	exp	71	20131023.113315	same	20	same	1	985
87	18	F	PSYC4802-20134	0.98	Block	exp	72	20131023.113318	diff	100	diff	1	1249
87	18	F	PSYC4802-20134	0.98	Block	exp	73	20131023.113321	diff	20	same	0	1940
87	18	F	PSYC4802-20134	0.98	Block	exp	74	20131023.113325	diff	100	diff	1	7390
87	18	F	PSYC4802-20134	0.98	Block	exp	75	20131023.113335	diff	20	diff	1	2444
87	18	F	PSYC4802-20134	0.98	Block	exp	76	20131023.113339	same	60	same	1	1255
87	18	F	PSYC4802-20134	0.98	Block	exp	77	20131023.113342	same	60	same	1	1964
87	18	F	PSYC4802-20134	0.98	Block	exp	78	20131023.113346	same	100	diff	0	2350
87	18	F	PSYC4802-20134	0.98	Block	exp	79	20131023.113351	diff	60	same	0	5104
87	18	F	PSYC4802-20134	0.98	Block	exp	80	20131023.113358	diff	100	diff	1	1489
87	18	F	PSYC4802-20134	0.98	Block	exp	81	20131023.113401	same	100	diff	0	3657
87	18	F	PSYC4802-20134	0.98	Block	exp	82	20131023.113407	diff	100	diff	1	1794
87	18	F	PSYC4802-20134	0.98	Block	exp	83	20131023.113411	diff	60	diff	1	1331
87	18	F	PSYC4802-20134	0.98	Block	exp	84	20131023.113414	diff	60	diff	1	1384
87	18	F	PSYC4802-20134	0.98	Block	exp	85	20131023.113418	diff	60	same	0	2497
87	18	F	PSYC4802-20134	0.98	Block	exp	86	20131023.113422	same	20	same	1	1249
87	18	F	PSYC4802-20134	0.98	Block	exp	87	20131023.113425	diff	100	diff	1	5533
87	18	F	PSYC4802-20134	0.98	Block	exp	88	20131023.113433	same	100	diff	0	1507
87	18	F	PSYC4802-20134	0.98	Block	exp	89	20131023.113437	same	100	same	1	2292
87	18	F	PSYC4802-20134	0.98	Block	exp	90	20131023.113441	same	100	same	1	2117
87	18	F	PSYC4802-20134	0.98	Block	exp	91	20131023.113445	diff	60	same	0	1436
87	18	F	PSYC4802-20134	0.98	Block	exp	92	20131023.113449	diff	60	same	0	1871
87	18	F	PSYC4802-20134	0.98	Block	exp	93	20131023.113452	diff	100	diff	1	3903
87	18	F	PSYC4802-20134	0.98	Block	exp	94	20131023.113458	diff	60	diff	1	1448
87	18	F	PSYC4802-20134	0.98	Block	exp	95	20131023.113502	same	100	same	1	1490
87	18	F	PSYC4802-20134	0.98	Block	exp	96	20131023.113505	diff	100	diff	1	2549
87	18	F	PSYC4802-20134	0.98	Block	exp	97	20131023.113510	same	20	diff	0	1595
87	18	F	PSYC4802-20134	0.98	Block	exp	98	20131023.113514	diff	20	diff	1	2328
87	18	F	PSYC4802-20134	0.98	Block	exp	99	20131023.113518	same	20	same	1	827
87	18	F	PSYC4802-20134	0.98	Block	exp	100	20131023.113521	same	20	same	1	786
87	18	F	PSYC4802-20134	0.98	Block	exp	101	20131023.113526	same	20	same	1	1519
87	18	F	PSYC4802-20134	0.98	Block	exp	102	20131023.113529	diff	60	diff	1	874
87	18	F	PSYC4802-20134	0.98	Block	exp	103	20131023.113532	diff	20	diff	1	1320
87	18	F	PSYC4802-20134	0.98	Block	exp	104	20131023.113536	same	100	diff	0	1285
87	18	F	PSYC4802-20134	0.98	Block	exp	105	20131023.113539	same	20	diff	0	1009
87	18	F	PSYC4802-20134	0.98	Block	exp	106	20131023.113542	same	20	same	1	715
87	18	F	PSYC4802-20134	0.98	Block	exp	107	20131023.113545	same	60	same	1	1953
87	18	F	PSYC4802-20134	0.98	Block	exp	108	20131023.113549	diff	60	diff	1	1765
87	18	F	PSYC4802-20134	0.98	Block	exp	109	20131023.113553	same	20	same	1	1073
87	18	F	PSYC4802-20134	0.98	Block	exp	110	20131023.113556	same	100	diff	0	1484
87	18	F	PSYC4802-20134	0.98	Block	exp	111	20131023.113559	same	100	same	1	1442
87	18	F	PSYC4802-20134	0.98	Block	exp	112	20131023.113603	diff	100	diff	1	1794
87	18	F	PSYC4802-20134	0.98	Block	exp	113	20131023.113606	diff	60	same	0	5339
87	18	F	PSYC4802-20134	0.98	Block	exp	114	20131023.113614	diff	60	diff	1	1964
87	18	F	PSYC4802-20134	0.98	Block	exp	115	20131023.113618	diff	20	diff	1	2737
87	18	F	PSYC4802-20134	0.98	Block	exp	116	20131023.113623	same	20	same	1	1068
87	18	F	PSYC4802-20134	0.98	Block	exp	117	20131023.113626	same	100	same	1	1940
87	18	F	PSYC4802-20134	0.98	Block	exp	118	20131023.113630	same	20	same	1	1471
87	18	F	PSYC4802-20134	0.98	Block	exp	119	20131023.113633	diff	20	diff	1	1314
87	18	F	PSYC4802-20134	0.98	Block	exp	120	20131023.113637	diff	100	same	0	1389
87	18	F	PSYC4802-20134	0.98	Block	exp	121	20131023.113640	same	20	same	1	798
87	18	F	PSYC4802-20134	0.98	Block	exp	122	20131023.113643	diff	20	diff	1	1606
87	18	F	PSYC4802-20134	0.98	Block	exp	123	20131023.113646	same	60	same	1	2527
87	18	F	PSYC4802-20134	0.98	Block	exp	124	20131023.113651	diff	60	diff	1	1220
87	18	F	PSYC4802-20134	0.98	Block	exp	125	20131023.113654	diff	100	same	0	1448
87	18	F	PSYC4802-20134	0.98	Block	exp	126	20131023.113658	diff	100	diff	1	4571
87	18	F	PSYC4802-20134	0.98	Block	exp	127	20131023.113704	same	60	same	1	1249
87	18	F	PSYC4802-20134	0.98	Block	exp	128	20131023.113708	diff	60	same	0	2304
87	18	F	PSYC4802-20134	0.98	Block	exp	129	20131023.113712	same	100	same	1	1003
87	18	F	PSYC4802-20134	0.98	Block	exp	130	20131023.113715	diff	60	same	0	1472
87	18	F	PSYC4802-20134	0.98	Block	exp	131	20131023.113719	diff	20	diff	1	546
87	18	F	PSYC4802-20134	0.98	Block	exp	132	20131023.113721	same	20	same	1	1548
87	18	F	PSYC4802-20134	0.98	Block	exp	133	20131023.113725	same	100	same	1	2404
87	18	F	PSYC4802-20134	0.98	Block	exp	134	20131023.113729	same	100	same	1	2708
87	18	F	PSYC4802-20134	0.98	Block	exp	135	20131023.113734	diff	20	diff	1	3084
87	18	F	PSYC4802-20134	0.98	Block	exp	136	20131023.113739	same	100	same	1	1167
87	18	F	PSYC4802-20134	0.98	Block	exp	137	20131023.113742	diff	100	same	0	5573
87	18	F	PSYC4802-20134	0.98	Block	exp	138	20131023.113750	diff	100	diff	1	1888
87	18	F	PSYC4802-20134	0.98	Block	exp	139	20131023.113754	same	20	same	1	1044
87	18	F	PSYC4802-20134	0.98	Block	exp	140	20131023.113757	same	20	same	1	1014
87	18	F	PSYC4802-20134	0.98	Block	exp	141	20131023.113800	diff	60	same	0	2514
87	18	F	PSYC4802-20134	0.98	Block	exp	142	20131023.113804	diff	20	diff	1	945
87	18	F	PSYC4802-20134	0.98	Block	exp	143	20131023.113807	same	60	same	1	3129
87	18	F	PSYC4802-20134	0.98	Block	exp	144	20131023.113813	same	100	diff	0	1237
87	18	F	PSYC4802-20134	0.98	Block	exp	145	20131023.113816	diff	60	diff	1	1812
87	18	F	PSYC4802-20134	0.98	Block	exp	146	20131023.113820	diff	20	diff	1	991
87	18	F	PSYC4802-20134	0.98	Block	exp	147	20131023.113823	same	100	diff	0	557
87	18	F	PSYC4802-20134	0.98	Block	exp	148	20131023.113825	same	100	diff	0	1419
87	18	F	PSYC4802-20134	0.98	Block	exp	149	20131023.113829	same	20	same	1	974
87	18	F	PSYC4802-20134	0.98	Block	exp	150	20131023.113832	diff	60	diff	1	4196
87	18	F	PSYC4802-20134	0.98	Block	exp	151	20131023.113907	diff	60	diff	1	2884
87	18	F	PSYC4802-20134	0.98	Block	exp	152	20131023.113912	same	100	same	1	2533
87	18	F	PSYC4802-20134	0.98	Block	exp	153	20131023.113917	diff	20	diff	1	985
87	18	F	PSYC4802-20134	0.98	Block	exp	154	20131023.113920	diff	60	same	0	745
87	18	F	PSYC4802-20134	0.98	Block	exp	155	20131023.113923	diff	20	same	0	862
87	18	F	PSYC4802-20134	0.98	Block	exp	156	20131023.113926	same	60	same	1	1260
87	18	F	PSYC4802-20134	0.98	Block	exp	157	20131023.113929	same	20	same	1	663
87	18	F	PSYC4802-20134	0.98	Block	exp	158	20131023.113932	same	60	same	1	974
87	18	F	PSYC4802-20134	0.98	Block	exp	159	20131023.113935	same	60	same	1	610
87	18	F	PSYC4802-20134	0.98	Block	exp	160	20131023.113937	diff	60	diff	1	1085
87	18	F	PSYC4802-20134	0.98	Block	exp	161	20131023.113940	same	60	same	1	2889
87	18	F	PSYC4802-20134	0.98	Block	exp	162	20131023.113945	diff	20	diff	1	1278
87	18	F	PSYC4802-20134	0.98	Block	exp	163	20131023.113949	diff	100	diff	1	2890
87	18	F	PSYC4802-20134	0.98	Block	exp	164	20131023.113954	diff	60	same	0	1384
87	18	F	PSYC4802-20134	0.98	Block	exp	165	20131023.113957	diff	60	diff	1	1437
87	18	F	PSYC4802-20134	0.98	Block	exp	166	20131023.114000	same	60	same	1	1612
87	18	F	PSYC4802-20134	0.98	Block	exp	167	20131023.114004	diff	100	diff	1	1776
87	18	F	PSYC4802-20134	0.98	Block	exp	168	20131023.114008	same	20	same	1	792
87	18	F	PSYC4802-20134	0.98	Block	exp	169	20131023.114011	same	60	same	1	1958
87	18	F	PSYC4802-20134	0.98	Block	exp	170	20131023.114015	diff	100	diff	1	816
87	18	F	PSYC4802-20134	0.98	Block	exp	171	20131023.114018	same	60	same	1	874
87	18	F	PSYC4802-20134	0.98	Block	exp	172	20131023.114020	diff	60	diff	1	1079
87	18	F	PSYC4802-20134	0.98	Block	exp	173	20131023.114024	diff	60	same	0	529
87	18	F	PSYC4802-20134	0.98	Block	exp	174	20131023.114026	diff	100	diff	1	1758
87	18	F	PSYC4802-20134	0.98	Block	exp	175	20131023.114030	diff	100	diff	1	2901
87	18	F	PSYC4802-20134	0.98	Block	exp	176	20131023.114035	diff	20	diff	1	2063
87	18	F	PSYC4802-20134	0.98	Block	exp	177	20131023.114039	diff	60	same	0	7026
87	18	F	PSYC4802-20134	0.98	Block	exp	178	20131023.114048	diff	100	diff	1	1519
87	18	F	PSYC4802-20134	0.98	Block	exp	179	20131023.114051	same	60	diff	0	850
87	18	F	PSYC4802-20134	0.98	Block	exp	180	20131023.114054	diff	20	diff	1	798
87	18	F	PSYC4802-20134	0.98	Block	exp	181	20131023.114057	diff	20	same	0	845
87	18	F	PSYC4802-20134	0.98	Block	exp	182	20131023.114100	same	60	same	1	1032
87	18	F	PSYC4802-20134	0.98	Block	exp	183	20131023.114103	same	60	same	1	622
87	18	F	PSYC4802-20134	0.98	Block	exp	184	20131023.114106	diff	100	diff	1	3025
87	18	F	PSYC4802-20134	0.98	Block	exp	185	20131023.114111	same	100	same	1	1589
87	18	F	PSYC4802-20134	0.98	Block	exp	186	20131023.114114	same	20	same	1	1396
87	18	F	PSYC4802-20134	0.98	Block	exp	187	20131023.114118	diff	60	diff	1	1314
87	18	F	PSYC4802-20134	0.98	Block	exp	188	20131023.114121	diff	60	diff	1	2110
87	18	F	PSYC4802-20134	0.98	Block	exp	189	20131023.114125	diff	60	diff	1	1770
87	18	F	PSYC4802-20134	0.98	Block	exp	190	20131023.114129	same	100	same	1	2626
87	18	F	PSYC4802-20134	0.98	Block	exp	191	20131023.114134	same	100	diff	0	1396
87	18	F	PSYC4802-20134	0.98	Block	exp	192	20131023.114137	diff	20	same	0	874
87	18	F	PSYC4802-20134	0.98	Block	exp	193	20131023.114140	diff	100	diff	1	1577
87	18	F	PSYC4802-20134	0.98	Block	exp	194	20131023.114144	same	100	same	1	1220
87	18	F	PSYC4802-20134	0.98	Block	exp	195	20131023.114147	diff	20	diff	1	4653
87	18	F	PSYC4802-20134	0.98	Block	exp	196	20131023.114154	same	20	same	1	962
87	18	F	PSYC4802-20134	0.98	Block	exp	197	20131023.114157	same	20	same	1	710
87	18	F	PSYC4802-20134	0.98	Block	exp	198	20131023.114159	diff	100	diff	1	4958
87	18	F	PSYC4802-20134	0.98	Block	exp	199	20131023.114206	same	20	same	1	669
87	18	F	PSYC4802-20134	0.98	Block	exp	200	20131023.114209	diff	100	same	0	1676
87	18	F	PSYC4802-20134	0.98	Block	exp	201	20131023.114254	same	100	diff	0	3710
87	18	F	PSYC4802-20134	0.98	Block	exp	202	20131023.114259	diff	100	diff	1	1266
87	18	F	PSYC4802-20134	0.98	Block	exp	203	20131023.114303	same	20	same	1	769
87	18	F	PSYC4802-20134	0.98	Block	exp	204	20131023.114305	diff	20	diff	1	1032
87	18	F	PSYC4802-20134	0.98	Block	exp	205	20131023.114308	diff	60	diff	1	833
87	18	F	PSYC4802-20134	0.98	Block	exp	206	20131023.114311	diff	100	same	0	705
87	18	F	PSYC4802-20134	0.98	Block	exp	207	20131023.114314	same	100	same	1	1021
87	18	F	PSYC4802-20134	0.98	Block	exp	208	20131023.114317	diff	60	diff	1	1712
87	18	F	PSYC4802-20134	0.98	Block	exp	209	20131023.114321	same	60	same	1	1378
87	18	F	PSYC4802-20134	0.98	Block	exp	210	20131023.114324	same	20	same	1	986
87	18	F	PSYC4802-20134	0.98	Block	exp	211	20131023.114327	diff	100	same	0	2098
87	18	F	PSYC4802-20134	0.98	Block	exp	212	20131023.114331	same	20	same	1	957
87	18	F	PSYC4802-20134	0.98	Block	exp	213	20131023.114334	diff	100	diff	1	7003
87	18	F	PSYC4802-20134	0.98	Block	exp	214	20131023.114343	same	100	same	1	3144
87	18	F	PSYC4802-20134	0.98	Block	exp	215	20131023.114349	same	60	same	1	1302
87	18	F	PSYC4802-20134	0.98	Block	exp	216	20131023.114352	diff	60	diff	1	1302
87	18	F	PSYC4802-20134	0.98	Block	exp	217	20131023.114355	diff	20	same	0	1214
87	18	F	PSYC4802-20134	0.98	Block	exp	218	20131023.114359	same	20	same	1	1020
87	18	F	PSYC4802-20134	0.98	Block	exp	219	20131023.114402	diff	100	diff	1	4472
87	18	F	PSYC4802-20134	0.98	Block	exp	220	20131023.114408	same	100	diff	0	1507
87	18	F	PSYC4802-20134	0.98	Block	exp	221	20131023.114412	same	20	same	1	1074
87	18	F	PSYC4802-20134	0.98	Block	exp	222	20131023.114415	diff	60	diff	1	3436
87	18	F	PSYC4802-20134	0.98	Block	exp	223	20131023.114420	same	20	same	1	1073
87	18	F	PSYC4802-20134	0.98	Block	exp	224	20131023.114423	same	100	diff	0	1267
87	18	F	PSYC4802-20134	0.98	Block	exp	225	20131023.114427	diff	20	same	0	2439
87	18	F	PSYC4802-20134	0.98	Block	exp	226	20131023.114431	same	20	same	1	727
87	18	F	PSYC4802-20134	0.98	Block	exp	227	20131023.114434	same	60	diff	0	645
87	18	F	PSYC4802-20134	0.98	Block	exp	228	20131023.114436	same	20	same	1	1261
87	18	F	PSYC4802-20134	0.98	Block	exp	229	20131023.114440	same	60	same	1	2169
87	18	F	PSYC4802-20134	0.98	Block	exp	230	20131023.114444	same	60	diff	0	1026
87	18	F	PSYC4802-20134	0.98	Block	exp	231	20131023.114447	diff	60	same	0	446
87	18	F	PSYC4802-20134	0.98	Block	exp	232	20131023.114450	same	100	same	1	740
87	18	F	PSYC4802-20134	0.98	Block	exp	233	20131023.114452	diff	20	same	0	435
87	18	F	PSYC4802-20134	0.98	Block	exp	234	20131023.114455	diff	100	same	0	746
87	18	F	PSYC4802-20134	0.98	Block	exp	235	20131023.114458	same	60	diff	0	739
87	18	F	PSYC4802-20134	0.98	Block	exp	236	20131023.114500	diff	20	diff	1	1014
87	18	F	PSYC4802-20134	0.98	Block	exp	237	20131023.114503	diff	20	diff	1	973
87	18	F	PSYC4802-20134	0.98	Block	exp	238	20131023.114506	same	20	same	1	663
87	18	F	PSYC4802-20134	0.98	Block	exp	239	20131023.114509	diff	60	diff	1	850
87	18	F	PSYC4802-20134	0.98	Block	exp	240	20131023.114512	same	100	same	1	6084
87	18	F	PSYC4802-20134	0.98	Block	exp	241	20131023.114520	diff	20	diff	1	4161
87	18	F	PSYC4802-20134	0.98	Block	exp	242	20131023.114526	diff	100	same	0	898
87	18	F	PSYC4802-20134	0.98	Block	exp	243	20131023.114529	same	100	same	1	722
87	18	F	PSYC4802-20134	0.98	Block	exp	244	20131023.114532	same	60	same	1	2901
87	18	F	PSYC4802-20134	0.98	Block	exp	245	20131023.114537	same	20	same	1	798
87	18	F	PSYC4802-20134	0.98	Block	exp	246	20131023.114540	diff	20	diff	1	1395
87	18	F	PSYC4802-20134	0.98	Block	exp	247	20131023.114543	diff	100	diff	1	2192
87	18	F	PSYC4802-20134	0.98	Block	exp	248	20131023.114547	same	100	same	1	1074
87	18	F	PSYC4802-20134	0.98	Block	exp	249	20131023.114550	same	100	diff	0	1735
87	18	F	PSYC4802-20134	0.98	Block	exp	250	20131023.114554	diff	60	diff	1	1278
87	18	F	PSYC4802-20134	0.98	Block	exp	251	20131023.114623	diff	20	diff	1	1818
87	18	F	PSYC4802-20134	0.98	Block	exp	252	20131023.114627	diff	100	diff	1	880
87	18	F	PSYC4802-20134	0.98	Block	exp	253	20131023.114630	same	20	diff	0	4038
87	18	F	PSYC4802-20134	0.98	Block	exp	254	20131023.114636	same	100	same	1	1507
87	18	F	PSYC4802-20134	0.98	Block	exp	255	20131023.114640	same	100	same	1	897
87	18	F	PSYC4802-20134	0.98	Block	exp	256	20131023.114643	same	60	same	1	721
87	18	F	PSYC4802-20134	0.98	Block	exp	257	20131023.114645	same	20	diff	0	704
87	18	F	PSYC4802-20134	0.98	Block	exp	258	20131023.114648	same	20	same	1	804
87	18	F	PSYC4802-20134	0.98	Block	exp	259	20131023.114651	same	20	same	1	611
87	18	F	PSYC4802-20134	0.98	Block	exp	260	20131023.114654	diff	20	diff	1	704
87	18	F	PSYC4802-20134	0.98	Block	exp	261	20131023.114656	diff	20	diff	1	780
87	18	F	PSYC4802-20134	0.98	Block	exp	262	20131023.114659	same	60	same	1	1032
87	18	F	PSYC4802-20134	0.98	Block	exp	263	20131023.114702	diff	100	diff	1	803
87	18	F	PSYC4802-20134	0.98	Block	exp	264	20131023.114705	same	60	same	1	693
87	18	F	PSYC4802-20134	0.98	Block	exp	265	20131023.114708	diff	20	diff	1	985
87	18	F	PSYC4802-20134	0.98	Block	exp	266	20131023.114711	diff	60	same	0	892
87	18	F	PSYC4802-20134	0.98	Block	exp	267	20131023.114714	diff	100	diff	1	1355
87	18	F	PSYC4802-20134	0.98	Block	exp	268	20131023.114717	diff	20	diff	1	1712
87	18	F	PSYC4802-20134	0.98	Block	exp	269	20131023.114721	diff	20	same	0	804
87	18	F	PSYC4802-20134	0.98	Block	exp	270	20131023.114723	same	60	same	1	716
87	18	F	PSYC4802-20134	0.98	Block	exp	271	20131023.114726	diff	60	diff	1	2532
87	18	F	PSYC4802-20134	0.98	Block	exp	272	20131023.114731	same	60	same	1	833
87	18	F	PSYC4802-20134	0.98	Block	exp	273	20131023.114734	diff	20	diff	1	921
87	18	F	PSYC4802-20134	0.98	Block	exp	274	20131023.114737	same	60	same	1	1020
87	18	F	PSYC4802-20134	0.98	Block	exp	275	20131023.114740	diff	100	diff	1	1132
87	18	F	PSYC4802-20134	0.98	Block	exp	276	20131023.114743	diff	60	diff	1	1255
87	18	F	PSYC4802-20134	0.98	Block	exp	277	20131023.114746	same	60	same	1	687
87	18	F	PSYC4802-20134	0.98	Block	exp	278	20131023.114749	diff	20	diff	1	880
87	18	F	PSYC4802-20134	0.98	Block	exp	279	20131023.114752	same	20	same	1	622
87	18	F	PSYC4802-20134	0.98	Block	exp	280	20131023.114754	diff	60	same	0	768
87	18	F	PSYC4802-20134	0.98	Block	exp	281	20131023.114757	diff	60	diff	1	1109
87	18	F	PSYC4802-20134	0.98	Block	exp	282	20131023.114800	diff	100	diff	1	1255
87	18	F	PSYC4802-20134	0.98	Block	exp	283	20131023.114803	same	60	same	1	1472
87	18	F	PSYC4802-20134	0.98	Block	exp	284	20131023.114807	same	100	diff	0	880
87	18	F	PSYC4802-20134	0.98	Block	exp	285	20131023.114810	diff	100	same	0	1700
87	18	F	PSYC4802-20134	0.98	Block	exp	286	20131023.114814	same	20	same	1	757
87	18	F	PSYC4802-20134	0.98	Block	exp	287	20131023.114816	same	60	same	1	1741
87	18	F	PSYC4802-20134	0.98	Block	exp	288	20131023.114820	diff	20	diff	1	897
87	18	F	PSYC4802-20134	0.98	Block	exp	289	20131023.114823	same	60	same	1	927
87	18	F	PSYC4802-20134	0.98	Block	exp	290	20131023.114826	same	100	same	1	2404
87	18	F	PSYC4802-20134	0.98	Block	exp	291	20131023.114831	same	60	same	1	669
87	18	F	PSYC4802-20134	0.98	Block	exp	292	20131023.114833	same	20	same	1	605
87	18	F	PSYC4802-20134	0.98	Block	exp	293	20131023.114836	same	100	same	1	569
87	18	F	PSYC4802-20134	0.98	Block	exp	294	20131023.114839	diff	60	same	0	458
87	18	F	PSYC4802-20134	0.98	Block	exp	295	20131023.114841	diff	20	diff	1	1150
87	18	F	PSYC4802-20134	0.98	Block	exp	296	20131023.114844	same	60	diff	0	3242
87	18	F	PSYC4802-20134	0.98	Block	exp	297	20131023.114850	same	60	same	1	1020
87	18	F	PSYC4802-20134	0.98	Block	exp	298	20131023.114853	diff	20	diff	1	2374
87	18	F	PSYC4802-20134	0.98	Block	exp	299	20131023.114857	diff	100	same	0	616
87	18	F	PSYC4802-20134	0.98	Block	exp	300	20131023.114900	diff	100	diff	1	564
