Subject	Age	Sex	Experiment	Version	Block	TrialType	Trial	Timestamp	SameDiff	Rotation	Response	Acc	RT
122	28	M	PSYC4802-20134	0.98	Block	practice	1	20131030.105657	same	60	same	1	24381
122	28	M	PSYC4802-20134	0.98	Block	practice	2	20131030.105724	same	60	same	1	9171
122	28	M	PSYC4802-20134	0.98	Block	practice	3	20131030.105735	diff	100	diff	1	8931
122	28	M	PSYC4802-20134	0.98	Block	practice	4	20131030.105746	diff	20	diff	1	12423
122	28	M	PSYC4802-20134	0.98	Block	practice	5	20131030.105801	diff	20	diff	1	20754
122	28	M	PSYC4802-20134	0.98	Block	practice	6	20131030.105823	diff	60	diff	1	6610
122	28	M	PSYC4802-20134	0.98	Block	practice	7	20131030.105832	same	20	same	1	2157
122	28	M	PSYC4802-20134	0.98	Block	practice	8	20131030.105836	same	100	same	1	7320
122	28	M	PSYC4802-20134	0.98	Block	practice	9	20131030.105845	diff	100	diff	1	3575
122	28	M	PSYC4802-20134	0.98	Block	practice	10	20131030.105851	diff	20	diff	1	4536
122	28	M	PSYC4802-20134	0.98	Block	practice	11	20131030.105857	same	20	same	1	1430
122	28	M	PSYC4802-20134	0.98	Block	practice	12	20131030.105901	diff	60	diff	1	4489
122	28	M	PSYC4802-20134	0.98	Block	practice	13	20131030.105907	same	60	same	1	1091
122	28	M	PSYC4802-20134	0.98	Block	practice	14	20131030.105910	same	20	same	1	1120
122	28	M	PSYC4802-20134	0.98	Block	practice	15	20131030.105914	diff	20	diff	1	9786
122	28	M	PSYC4802-20134	0.98	Block	practice	16	20131030.105925	same	60	same	1	4196
122	28	M	PSYC4802-20134	0.98	Block	practice	17	20131030.105931	same	20	diff	0	3358
122	28	M	PSYC4802-20134	0.98	Block	practice	18	20131030.105937	diff	100	diff	1	5281
122	28	M	PSYC4802-20134	0.98	Block	practice	19	20131030.105944	same	20	same	1	1554
122	28	M	PSYC4802-20134	0.98	Block	practice	20	20131030.105948	diff	60	diff	1	3734
122	28	M	PSYC4802-20134	0.98	Block	practice	21	20131030.105953	diff	60	diff	1	3605
122	28	M	PSYC4802-20134	0.98	Block	practice	22	20131030.105959	same	100	same	1	4975
122	28	M	PSYC4802-20134	0.98	Block	practice	23	20131030.110006	diff	100	diff	1	5069
122	28	M	PSYC4802-20134	0.98	Block	practice	24	20131030.110013	same	100	same	1	1085
122	28	M	PSYC4802-20134	0.98	Block	practice	25	20131030.110016	same	100	same	1	2872
122	28	M	PSYC4802-20134	0.98	Block	practice	26	20131030.110021	same	60	same	1	2233
122	28	M	PSYC4802-20134	0.98	Block	practice	27	20131030.110025	diff	100	diff	1	1911
122	28	M	PSYC4802-20134	0.98	Block	practice	28	20131030.110029	same	100	same	1	1073
122	28	M	PSYC4802-20134	0.98	Block	practice	29	20131030.110032	diff	60	diff	1	2023
122	28	M	PSYC4802-20134	0.98	Block	practice	30	20131030.110036	diff	20	diff	1	2555
122	28	M	PSYC4802-20134	0.98	Block	exp	31	20131030.110041	diff	20	diff	1	2022
122	28	M	PSYC4802-20134	0.98	Block	exp	32	20131030.110045	same	20	same	1	1085
122	28	M	PSYC4802-20134	0.98	Block	exp	33	20131030.110048	same	100	same	1	2240
122	28	M	PSYC4802-20134	0.98	Block	exp	34	20131030.110052	same	100	same	1	1378
122	28	M	PSYC4802-20134	0.98	Block	exp	35	20131030.110055	same	20	same	1	862
122	28	M	PSYC4802-20134	0.98	Block	exp	36	20131030.110058	same	20	same	1	669
122	28	M	PSYC4802-20134	0.98	Block	exp	37	20131030.110101	diff	20	diff	1	1056
122	28	M	PSYC4802-20134	0.98	Block	exp	38	20131030.110104	diff	60	diff	1	2110
122	28	M	PSYC4802-20134	0.98	Block	exp	39	20131030.110108	same	100	same	1	1050
122	28	M	PSYC4802-20134	0.98	Block	exp	40	20131030.110111	diff	60	diff	1	3153
122	28	M	PSYC4802-20134	0.98	Block	exp	41	20131030.110116	diff	60	diff	1	1694
122	28	M	PSYC4802-20134	0.98	Block	exp	42	20131030.110120	diff	60	diff	1	1519
122	28	M	PSYC4802-20134	0.98	Block	exp	43	20131030.110123	diff	20	diff	1	1975
122	28	M	PSYC4802-20134	0.98	Block	exp	44	20131030.110127	same	20	same	1	663
122	28	M	PSYC4802-20134	0.98	Block	exp	45	20131030.110130	diff	100	diff	1	1689
122	28	M	PSYC4802-20134	0.98	Block	exp	46	20131030.110134	same	100	diff	0	1419
122	28	M	PSYC4802-20134	0.98	Block	exp	47	20131030.110137	same	100	same	1	1800
122	28	M	PSYC4802-20134	0.98	Block	exp	48	20131030.110141	same	100	same	1	1366
122	28	M	PSYC4802-20134	0.98	Block	exp	49	20131030.110144	diff	60	diff	1	2931
122	28	M	PSYC4802-20134	0.98	Block	exp	50	20131030.110149	same	60	same	1	1049
122	28	M	PSYC4802-20134	0.98	Block	exp	51	20131030.110231	diff	100	diff	1	5245
122	28	M	PSYC4802-20134	0.98	Block	exp	52	20131030.110239	same	60	same	1	997
122	28	M	PSYC4802-20134	0.98	Block	exp	53	20131030.110242	diff	20	diff	1	1665
122	28	M	PSYC4802-20134	0.98	Block	exp	54	20131030.110245	same	100	same	1	974
122	28	M	PSYC4802-20134	0.98	Block	exp	55	20131030.110248	diff	60	diff	1	1021
122	28	M	PSYC4802-20134	0.98	Block	exp	56	20131030.110251	same	100	same	1	1865
122	28	M	PSYC4802-20134	0.98	Block	exp	57	20131030.110255	diff	20	diff	1	1325
122	28	M	PSYC4802-20134	0.98	Block	exp	58	20131030.110258	diff	100	diff	1	1724
122	28	M	PSYC4802-20134	0.98	Block	exp	59	20131030.110302	diff	100	diff	1	3305
122	28	M	PSYC4802-20134	0.98	Block	exp	60	20131030.110307	same	100	same	1	2520
122	28	M	PSYC4802-20134	0.98	Block	exp	61	20131030.110312	diff	100	diff	1	1038
122	28	M	PSYC4802-20134	0.98	Block	exp	62	20131030.110315	diff	20	diff	1	2585
122	28	M	PSYC4802-20134	0.98	Block	exp	63	20131030.110320	same	60	same	1	1776
122	28	M	PSYC4802-20134	0.98	Block	exp	64	20131030.110323	same	20	same	1	850
122	28	M	PSYC4802-20134	0.98	Block	exp	65	20131030.110326	diff	100	diff	1	2029
122	28	M	PSYC4802-20134	0.98	Block	exp	66	20131030.110330	diff	100	diff	1	5239
122	28	M	PSYC4802-20134	0.98	Block	exp	67	20131030.110337	diff	20	diff	1	2462
122	28	M	PSYC4802-20134	0.98	Block	exp	68	20131030.110342	same	100	same	1	2333
122	28	M	PSYC4802-20134	0.98	Block	exp	69	20131030.110346	diff	20	diff	1	1601
122	28	M	PSYC4802-20134	0.98	Block	exp	70	20131030.110350	same	20	same	1	1789
122	28	M	PSYC4802-20134	0.98	Block	exp	71	20131030.110354	same	60	same	1	3259
122	28	M	PSYC4802-20134	0.98	Block	exp	72	20131030.110359	diff	100	diff	1	1062
122	28	M	PSYC4802-20134	0.98	Block	exp	73	20131030.110402	same	60	same	1	962
122	28	M	PSYC4802-20134	0.98	Block	exp	74	20131030.110405	diff	60	diff	1	2526
122	28	M	PSYC4802-20134	0.98	Block	exp	75	20131030.110409	diff	20	diff	1	1483
122	28	M	PSYC4802-20134	0.98	Block	exp	76	20131030.110413	diff	100	diff	1	1642
122	28	M	PSYC4802-20134	0.98	Block	exp	77	20131030.110416	diff	60	diff	1	1114
122	28	M	PSYC4802-20134	0.98	Block	exp	78	20131030.110420	diff	60	diff	1	1794
122	28	M	PSYC4802-20134	0.98	Block	exp	79	20131030.110423	same	20	same	1	991
122	28	M	PSYC4802-20134	0.98	Block	exp	80	20131030.110426	diff	20	diff	1	1091
122	28	M	PSYC4802-20134	0.98	Block	exp	81	20131030.110429	diff	60	diff	1	2503
122	28	M	PSYC4802-20134	0.98	Block	exp	82	20131030.110434	same	100	same	1	4770
122	28	M	PSYC4802-20134	0.98	Block	exp	83	20131030.110441	diff	20	diff	1	1091
122	28	M	PSYC4802-20134	0.98	Block	exp	84	20131030.110444	diff	100	diff	1	1413
122	28	M	PSYC4802-20134	0.98	Block	exp	85	20131030.110447	diff	60	diff	1	3563
122	28	M	PSYC4802-20134	0.98	Block	exp	86	20131030.110453	same	20	same	1	1355
122	28	M	PSYC4802-20134	0.98	Block	exp	87	20131030.110456	same	60	same	1	1999
122	28	M	PSYC4802-20134	0.98	Block	exp	88	20131030.110500	diff	100	diff	1	1688
122	28	M	PSYC4802-20134	0.98	Block	exp	89	20131030.110504	diff	20	diff	1	1976
122	28	M	PSYC4802-20134	0.98	Block	exp	90	20131030.110508	diff	100	diff	1	4074
122	28	M	PSYC4802-20134	0.98	Block	exp	91	20131030.110514	diff	60	diff	1	1055
122	28	M	PSYC4802-20134	0.98	Block	exp	92	20131030.110517	same	100	same	1	3265
122	28	M	PSYC4802-20134	0.98	Block	exp	93	20131030.110522	diff	100	diff	1	1454
122	28	M	PSYC4802-20134	0.98	Block	exp	94	20131030.110526	diff	20	diff	1	1618
122	28	M	PSYC4802-20134	0.98	Block	exp	95	20131030.110529	same	100	same	1	2614
122	28	M	PSYC4802-20134	0.98	Block	exp	96	20131030.110534	same	100	same	1	8549
122	28	M	PSYC4802-20134	0.98	Block	exp	97	20131030.110544	diff	60	diff	1	2216
122	28	M	PSYC4802-20134	0.98	Block	exp	98	20131030.110549	same	60	same	1	1834
122	28	M	PSYC4802-20134	0.98	Block	exp	99	20131030.110553	same	100	diff	0	2937
122	28	M	PSYC4802-20134	0.98	Block	exp	100	20131030.110558	same	20	same	1	1143
122	28	M	PSYC4802-20134	0.98	Block	exp	101	20131030.110702	diff	60	diff	1	3628
122	28	M	PSYC4802-20134	0.98	Block	exp	102	20131030.110708	same	100	same	1	1290
122	28	M	PSYC4802-20134	0.98	Block	exp	103	20131030.110711	same	100	same	1	1923
122	28	M	PSYC4802-20134	0.98	Block	exp	104	20131030.110715	diff	20	diff	1	915
122	28	M	PSYC4802-20134	0.98	Block	exp	105	20131030.110718	same	20	same	1	1389
122	28	M	PSYC4802-20134	0.98	Block	exp	106	20131030.110721	same	60	same	1	2508
122	28	M	PSYC4802-20134	0.98	Block	exp	107	20131030.110726	diff	60	diff	1	1724
122	28	M	PSYC4802-20134	0.98	Block	exp	108	20131030.110730	same	60	same	1	1782
122	28	M	PSYC4802-20134	0.98	Block	exp	109	20131030.110734	same	60	same	1	1595
122	28	M	PSYC4802-20134	0.98	Block	exp	110	20131030.110737	same	20	same	1	1091
122	28	M	PSYC4802-20134	0.98	Block	exp	111	20131030.110740	diff	20	diff	1	927
122	28	M	PSYC4802-20134	0.98	Block	exp	112	20131030.110743	diff	100	diff	1	3956
122	28	M	PSYC4802-20134	0.98	Block	exp	113	20131030.110749	diff	100	diff	1	2690
122	28	M	PSYC4802-20134	0.98	Block	exp	114	20131030.110754	same	20	same	1	745
122	28	M	PSYC4802-20134	0.98	Block	exp	115	20131030.110757	same	20	same	1	962
122	28	M	PSYC4802-20134	0.98	Block	exp	116	20131030.110800	same	60	same	1	798
122	28	M	PSYC4802-20134	0.98	Block	exp	117	20131030.110802	diff	20	diff	1	2819
122	28	M	PSYC4802-20134	0.98	Block	exp	118	20131030.110807	diff	100	diff	1	1448
122	28	M	PSYC4802-20134	0.98	Block	exp	119	20131030.110811	same	100	same	1	986
122	28	M	PSYC4802-20134	0.98	Block	exp	120	20131030.110814	same	60	same	1	2023
122	28	M	PSYC4802-20134	0.98	Block	exp	121	20131030.110818	diff	100	diff	1	1770
122	28	M	PSYC4802-20134	0.98	Block	exp	122	20131030.110821	diff	60	diff	1	1941
122	28	M	PSYC4802-20134	0.98	Block	exp	123	20131030.110825	diff	60	diff	1	2726
122	28	M	PSYC4802-20134	0.98	Block	exp	124	20131030.110830	same	20	same	1	2064
122	28	M	PSYC4802-20134	0.98	Block	exp	125	20131030.110834	diff	100	diff	1	1055
122	28	M	PSYC4802-20134	0.98	Block	exp	126	20131030.110837	diff	60	diff	1	2439
122	28	M	PSYC4802-20134	0.98	Block	exp	127	20131030.110842	same	60	same	1	3359
122	28	M	PSYC4802-20134	0.98	Block	exp	128	20131030.110847	diff	20	diff	1	1021
122	28	M	PSYC4802-20134	0.98	Block	exp	129	20131030.110850	same	100	same	1	2187
122	28	M	PSYC4802-20134	0.98	Block	exp	130	20131030.110854	same	60	diff	0	10079
122	28	M	PSYC4802-20134	0.98	Block	exp	131	20131030.110906	same	60	same	1	2081
122	28	M	PSYC4802-20134	0.98	Block	exp	132	20131030.110910	diff	20	diff	1	1601
122	28	M	PSYC4802-20134	0.98	Block	exp	133	20131030.110914	diff	60	diff	1	6376
122	28	M	PSYC4802-20134	0.98	Block	exp	134	20131030.110922	diff	60	diff	1	1103
122	28	M	PSYC4802-20134	0.98	Block	exp	135	20131030.110925	same	60	same	1	798
122	28	M	PSYC4802-20134	0.98	Block	exp	136	20131030.110928	same	60	same	1	2568
122	28	M	PSYC4802-20134	0.98	Block	exp	137	20131030.110933	same	100	same	1	2802
122	28	M	PSYC4802-20134	0.98	Block	exp	138	20131030.110938	diff	60	diff	1	2104
122	28	M	PSYC4802-20134	0.98	Block	exp	139	20131030.110942	diff	20	diff	1	2732
122	28	M	PSYC4802-20134	0.98	Block	exp	140	20131030.110946	diff	100	diff	1	1794
122	28	M	PSYC4802-20134	0.98	Block	exp	141	20131030.110950	diff	100	diff	1	1261
122	28	M	PSYC4802-20134	0.98	Block	exp	142	20131030.110954	diff	20	diff	1	1613
122	28	M	PSYC4802-20134	0.98	Block	exp	143	20131030.110957	same	20	same	1	1431
122	28	M	PSYC4802-20134	0.98	Block	exp	144	20131030.111001	same	20	same	1	698
122	28	M	PSYC4802-20134	0.98	Block	exp	145	20131030.111003	same	100	same	1	2245
122	28	M	PSYC4802-20134	0.98	Block	exp	146	20131030.111008	same	20	same	1	1202
122	28	M	PSYC4802-20134	0.98	Block	exp	147	20131030.111011	diff	60	diff	1	1641
122	28	M	PSYC4802-20134	0.98	Block	exp	148	20131030.111014	same	20	same	1	2075
122	28	M	PSYC4802-20134	0.98	Block	exp	149	20131030.111018	diff	20	diff	1	1677
122	28	M	PSYC4802-20134	0.98	Block	exp	150	20131030.111022	same	60	same	1	1507
122	28	M	PSYC4802-20134	0.98	Block	exp	151	20131030.111222	same	100	same	1	3698
122	28	M	PSYC4802-20134	0.98	Block	exp	152	20131030.111228	same	100	same	1	3235
122	28	M	PSYC4802-20134	0.98	Block	exp	153	20131030.111233	diff	60	diff	1	2199
122	28	M	PSYC4802-20134	0.98	Block	exp	154	20131030.111237	same	100	same	1	1097
122	28	M	PSYC4802-20134	0.98	Block	exp	155	20131030.111240	diff	100	diff	1	1941
122	28	M	PSYC4802-20134	0.98	Block	exp	156	20131030.111244	diff	60	diff	1	1214
122	28	M	PSYC4802-20134	0.98	Block	exp	157	20131030.111248	same	100	same	1	1554
122	28	M	PSYC4802-20134	0.98	Block	exp	158	20131030.111251	same	100	same	1	1319
122	28	M	PSYC4802-20134	0.98	Block	exp	159	20131030.111254	diff	100	diff	1	1876
122	28	M	PSYC4802-20134	0.98	Block	exp	160	20131030.111258	diff	100	diff	1	6721
122	28	M	PSYC4802-20134	0.98	Block	exp	161	20131030.111307	same	60	same	1	2439
122	28	M	PSYC4802-20134	0.98	Block	exp	162	20131030.111312	same	20	same	1	1677
122	28	M	PSYC4802-20134	0.98	Block	exp	163	20131030.111315	diff	60	diff	1	3335
122	28	M	PSYC4802-20134	0.98	Block	exp	164	20131030.111321	same	60	same	1	1103
122	28	M	PSYC4802-20134	0.98	Block	exp	165	20131030.111324	same	60	diff	0	6212
122	28	M	PSYC4802-20134	0.98	Block	exp	166	20131030.111332	same	20	same	1	856
122	28	M	PSYC4802-20134	0.98	Block	exp	167	20131030.111335	same	100	same	1	1155
122	28	M	PSYC4802-20134	0.98	Block	exp	168	20131030.111338	diff	20	diff	1	2157
122	28	M	PSYC4802-20134	0.98	Block	exp	169	20131030.111342	same	20	same	1	857
122	28	M	PSYC4802-20134	0.98	Block	exp	170	20131030.111345	same	20	same	1	2052
122	28	M	PSYC4802-20134	0.98	Block	exp	171	20131030.111349	diff	100	diff	1	1911
122	28	M	PSYC4802-20134	0.98	Block	exp	172	20131030.111353	same	100	same	1	1027
122	28	M	PSYC4802-20134	0.98	Block	exp	173	20131030.111356	diff	20	diff	1	1554
122	28	M	PSYC4802-20134	0.98	Block	exp	174	20131030.111400	diff	60	diff	1	2785
122	28	M	PSYC4802-20134	0.98	Block	exp	175	20131030.111404	diff	100	diff	1	1407
122	28	M	PSYC4802-20134	0.98	Block	exp	176	20131030.111408	diff	100	diff	1	1900
122	28	M	PSYC4802-20134	0.98	Block	exp	177	20131030.111412	diff	100	diff	1	950
122	28	M	PSYC4802-20134	0.98	Block	exp	178	20131030.111415	diff	20	diff	1	827
122	28	M	PSYC4802-20134	0.98	Block	exp	179	20131030.111417	same	20	same	1	1559
122	28	M	PSYC4802-20134	0.98	Block	exp	180	20131030.111421	diff	20	diff	1	10160
122	28	M	PSYC4802-20134	0.98	Block	exp	181	20131030.111433	diff	100	diff	1	956
122	28	M	PSYC4802-20134	0.98	Block	exp	182	20131030.111436	same	20	same	1	1014
122	28	M	PSYC4802-20134	0.98	Block	exp	183	20131030.111439	diff	20	diff	1	2737
122	28	M	PSYC4802-20134	0.98	Block	exp	184	20131030.111444	same	20	same	1	816
122	28	M	PSYC4802-20134	0.98	Block	exp	185	20131030.111447	diff	60	diff	1	1267
122	28	M	PSYC4802-20134	0.98	Block	exp	186	20131030.111450	diff	20	diff	1	1237
122	28	M	PSYC4802-20134	0.98	Block	exp	187	20131030.111453	same	20	same	1	1161
122	28	M	PSYC4802-20134	0.98	Block	exp	188	20131030.111456	diff	60	diff	1	1061
122	28	M	PSYC4802-20134	0.98	Block	exp	189	20131030.111459	diff	100	diff	1	1589
122	28	M	PSYC4802-20134	0.98	Block	exp	190	20131030.111503	diff	20	diff	1	2714
122	28	M	PSYC4802-20134	0.98	Block	exp	191	20131030.111508	same	60	diff	0	2714
122	28	M	PSYC4802-20134	0.98	Block	exp	192	20131030.111512	diff	60	diff	1	1941
122	28	M	PSYC4802-20134	0.98	Block	exp	193	20131030.111516	same	60	same	1	968
122	28	M	PSYC4802-20134	0.98	Block	exp	194	20131030.111519	diff	60	diff	1	1923
122	28	M	PSYC4802-20134	0.98	Block	exp	195	20131030.111523	same	60	same	1	1009
122	28	M	PSYC4802-20134	0.98	Block	exp	196	20131030.111526	same	20	same	1	1214
122	28	M	PSYC4802-20134	0.98	Block	exp	197	20131030.111529	diff	60	diff	1	1876
122	28	M	PSYC4802-20134	0.98	Block	exp	198	20131030.111533	same	100	same	1	1056
122	28	M	PSYC4802-20134	0.98	Block	exp	199	20131030.111536	diff	100	diff	1	4109
122	28	M	PSYC4802-20134	0.98	Block	exp	200	20131030.111542	same	60	same	1	2685
122	28	M	PSYC4802-20134	0.98	Block	exp	201	20131030.111621	diff	60	diff	1	4015
122	28	M	PSYC4802-20134	0.98	Block	exp	202	20131030.111627	same	100	same	1	1038
122	28	M	PSYC4802-20134	0.98	Block	exp	203	20131030.111630	diff	20	diff	1	1079
122	28	M	PSYC4802-20134	0.98	Block	exp	204	20131030.111633	same	60	same	1	692
122	28	M	PSYC4802-20134	0.98	Block	exp	205	20131030.111636	diff	20	diff	1	1073
122	28	M	PSYC4802-20134	0.98	Block	exp	206	20131030.111639	diff	60	diff	1	3030
122	28	M	PSYC4802-20134	0.98	Block	exp	207	20131030.111644	same	20	same	1	645
122	28	M	PSYC4802-20134	0.98	Block	exp	208	20131030.111647	diff	100	diff	1	1466
122	28	M	PSYC4802-20134	0.98	Block	exp	209	20131030.111650	same	60	same	1	710
122	28	M	PSYC4802-20134	0.98	Block	exp	210	20131030.111653	diff	60	diff	1	1214
122	28	M	PSYC4802-20134	0.98	Block	exp	211	20131030.111656	same	100	same	1	645
122	28	M	PSYC4802-20134	0.98	Block	exp	212	20131030.111659	diff	100	diff	1	3018
122	28	M	PSYC4802-20134	0.98	Block	exp	213	20131030.111704	diff	20	diff	1	1225
122	28	M	PSYC4802-20134	0.98	Block	exp	214	20131030.111707	same	60	same	1	898
122	28	M	PSYC4802-20134	0.98	Block	exp	215	20131030.111710	diff	100	diff	1	821
122	28	M	PSYC4802-20134	0.98	Block	exp	216	20131030.111713	same	100	same	1	1811
122	28	M	PSYC4802-20134	0.98	Block	exp	217	20131030.111716	diff	60	diff	1	1437
122	28	M	PSYC4802-20134	0.98	Block	exp	218	20131030.111720	diff	20	diff	1	3967
122	28	M	PSYC4802-20134	0.98	Block	exp	219	20131030.111726	same	20	same	1	564
122	28	M	PSYC4802-20134	0.98	Block	exp	220	20131030.111728	diff	60	diff	1	1887
122	28	M	PSYC4802-20134	0.98	Block	exp	221	20131030.111732	diff	60	diff	1	675
122	28	M	PSYC4802-20134	0.98	Block	exp	222	20131030.111735	same	60	diff	0	1671
122	28	M	PSYC4802-20134	0.98	Block	exp	223	20131030.111738	diff	100	diff	1	1817
122	28	M	PSYC4802-20134	0.98	Block	exp	224	20131030.111742	same	60	same	1	1073
122	28	M	PSYC4802-20134	0.98	Block	exp	225	20131030.111745	diff	60	diff	1	681
122	28	M	PSYC4802-20134	0.98	Block	exp	226	20131030.111748	same	100	same	1	2462
122	28	M	PSYC4802-20134	0.98	Block	exp	227	20131030.111753	diff	20	diff	1	809
122	28	M	PSYC4802-20134	0.98	Block	exp	228	20131030.111755	same	60	same	1	874
122	28	M	PSYC4802-20134	0.98	Block	exp	229	20131030.111758	same	60	same	1	927
122	28	M	PSYC4802-20134	0.98	Block	exp	230	20131030.111801	same	20	same	1	698
122	28	M	PSYC4802-20134	0.98	Block	exp	231	20131030.111804	same	20	same	1	523
122	28	M	PSYC4802-20134	0.98	Block	exp	232	20131030.111806	same	60	same	1	646
122	28	M	PSYC4802-20134	0.98	Block	exp	233	20131030.111809	diff	60	diff	1	1483
122	28	M	PSYC4802-20134	0.98	Block	exp	234	20131030.111812	diff	20	diff	1	2649
122	28	M	PSYC4802-20134	0.98	Block	exp	235	20131030.111817	same	20	same	1	1120
122	28	M	PSYC4802-20134	0.98	Block	exp	236	20131030.111820	same	20	same	1	587
122	28	M	PSYC4802-20134	0.98	Block	exp	237	20131030.111823	same	100	same	1	2169
122	28	M	PSYC4802-20134	0.98	Block	exp	238	20131030.111827	same	20	same	1	751
122	28	M	PSYC4802-20134	0.98	Block	exp	239	20131030.111830	diff	100	diff	1	997
122	28	M	PSYC4802-20134	0.98	Block	exp	240	20131030.111833	same	20	same	1	581
122	28	M	PSYC4802-20134	0.98	Block	exp	241	20131030.111835	diff	60	diff	1	1460
122	28	M	PSYC4802-20134	0.98	Block	exp	242	20131030.111839	same	20	same	1	581
122	28	M	PSYC4802-20134	0.98	Block	exp	243	20131030.111841	diff	20	diff	1	898
122	28	M	PSYC4802-20134	0.98	Block	exp	244	20131030.111844	diff	20	same	0	786
122	28	M	PSYC4802-20134	0.98	Block	exp	245	20131030.111847	same	60	diff	0	1736
122	28	M	PSYC4802-20134	0.98	Block	exp	246	20131030.111850	diff	100	diff	1	1712
122	28	M	PSYC4802-20134	0.98	Block	exp	247	20131030.111854	same	100	same	1	933
122	28	M	PSYC4802-20134	0.98	Block	exp	248	20131030.111857	diff	100	diff	1	1782
122	28	M	PSYC4802-20134	0.98	Block	exp	249	20131030.111901	same	20	same	1	3675
122	28	M	PSYC4802-20134	0.98	Block	exp	250	20131030.111906	same	20	same	1	2860
122	28	M	PSYC4802-20134	0.98	Block	exp	251	20131030.111917	diff	20	diff	1	3147
122	28	M	PSYC4802-20134	0.98	Block	exp	252	20131030.111922	same	60	same	1	1431
122	28	M	PSYC4802-20134	0.98	Block	exp	253	20131030.111926	same	100	same	1	2767
122	28	M	PSYC4802-20134	0.98	Block	exp	254	20131030.111930	diff	100	diff	1	1518
122	28	M	PSYC4802-20134	0.98	Block	exp	255	20131030.111934	diff	60	diff	1	1190
122	28	M	PSYC4802-20134	0.98	Block	exp	256	20131030.111937	same	60	same	1	1448
122	28	M	PSYC4802-20134	0.98	Block	exp	257	20131030.111941	same	20	same	1	1742
122	28	M	PSYC4802-20134	0.98	Block	exp	258	20131030.111944	same	60	same	1	821
122	28	M	PSYC4802-20134	0.98	Block	exp	259	20131030.111947	same	20	same	1	611
122	28	M	PSYC4802-20134	0.98	Block	exp	260	20131030.111950	diff	100	diff	1	1155
122	28	M	PSYC4802-20134	0.98	Block	exp	261	20131030.111953	diff	100	diff	1	1484
122	28	M	PSYC4802-20134	0.98	Block	exp	262	20131030.111956	diff	20	diff	1	1578
122	28	M	PSYC4802-20134	0.98	Block	exp	263	20131030.112000	same	60	same	1	2555
122	28	M	PSYC4802-20134	0.98	Block	exp	264	20131030.112004	diff	20	diff	1	3271
122	28	M	PSYC4802-20134	0.98	Block	exp	265	20131030.112010	same	100	same	1	1144
122	28	M	PSYC4802-20134	0.98	Block	exp	266	20131030.112013	same	60	same	1	1530
122	28	M	PSYC4802-20134	0.98	Block	exp	267	20131030.112016	diff	20	diff	1	1302
122	28	M	PSYC4802-20134	0.98	Block	exp	268	20131030.112020	same	100	same	1	1232
122	28	M	PSYC4802-20134	0.98	Block	exp	269	20131030.112023	same	100	same	1	3306
122	28	M	PSYC4802-20134	0.98	Block	exp	270	20131030.112028	diff	100	diff	1	2029
122	28	M	PSYC4802-20134	0.98	Block	exp	271	20131030.112032	same	20	same	1	792
122	28	M	PSYC4802-20134	0.98	Block	exp	272	20131030.112035	same	100	same	1	939
122	28	M	PSYC4802-20134	0.98	Block	exp	273	20131030.112038	diff	100	diff	1	1120
122	28	M	PSYC4802-20134	0.98	Block	exp	274	20131030.112041	diff	20	diff	1	1056
122	28	M	PSYC4802-20134	0.98	Block	exp	275	20131030.112044	diff	60	diff	1	1413
122	28	M	PSYC4802-20134	0.98	Block	exp	276	20131030.112048	same	100	same	1	775
122	28	M	PSYC4802-20134	0.98	Block	exp	277	20131030.112050	diff	20	diff	1	1003
122	28	M	PSYC4802-20134	0.98	Block	exp	278	20131030.112053	diff	100	diff	1	1518
122	28	M	PSYC4802-20134	0.98	Block	exp	279	20131030.112057	diff	60	diff	1	1085
122	28	M	PSYC4802-20134	0.98	Block	exp	280	20131030.112100	diff	100	diff	1	4484
122	28	M	PSYC4802-20134	0.98	Block	exp	281	20131030.112107	same	60	same	1	734
122	28	M	PSYC4802-20134	0.98	Block	exp	282	20131030.112109	same	100	same	1	2240
122	28	M	PSYC4802-20134	0.98	Block	exp	283	20131030.112113	same	60	same	1	692
122	28	M	PSYC4802-20134	0.98	Block	exp	284	20131030.112116	same	60	same	1	1501
122	28	M	PSYC4802-20134	0.98	Block	exp	285	20131030.112120	same	60	same	1	850
122	28	M	PSYC4802-20134	0.98	Block	exp	286	20131030.112123	same	20	same	1	1038
122	28	M	PSYC4802-20134	0.98	Block	exp	287	20131030.112126	same	100	same	1	739
122	28	M	PSYC4802-20134	0.98	Block	exp	288	20131030.112129	diff	20	same	0	1214
122	28	M	PSYC4802-20134	0.98	Block	exp	289	20131030.112132	same	20	same	1	693
122	28	M	PSYC4802-20134	0.98	Block	exp	290	20131030.112135	diff	60	diff	1	851
122	28	M	PSYC4802-20134	0.98	Block	exp	291	20131030.112137	diff	20	diff	1	1097
122	28	M	PSYC4802-20134	0.98	Block	exp	292	20131030.112140	same	60	same	1	1401
122	28	M	PSYC4802-20134	0.98	Block	exp	293	20131030.112144	same	20	same	1	757
122	28	M	PSYC4802-20134	0.98	Block	exp	294	20131030.112147	same	60	same	1	1108
122	28	M	PSYC4802-20134	0.98	Block	exp	295	20131030.112150	same	100	same	1	1143
122	28	M	PSYC4802-20134	0.98	Block	exp	296	20131030.112153	same	20	same	1	698
122	28	M	PSYC4802-20134	0.98	Block	exp	297	20131030.112155	diff	20	diff	1	1653
122	28	M	PSYC4802-20134	0.98	Block	exp	298	20131030.112159	diff	60	diff	1	1589
122	28	M	PSYC4802-20134	0.98	Block	exp	299	20131030.112203	same	100	same	1	1173
122	28	M	PSYC4802-20134	0.98	Block	exp	300	20131030.112206	diff	100	diff	1	1203
