Subject	Age	Sex	Experiment	Version	Block	TrialType	Trial	Timestamp	SameDiff	Rotation	Response	Acc	RT
96	18	F	PSYC4802-20134	0.98	Block	practice	1	20131025.111346	same	20	same	1	29203
96	18	F	PSYC4802-20134	0.98	Block	practice	2	20131025.111417	diff	20	diff	1	24956
96	18	F	PSYC4802-20134	0.98	Block	practice	3	20131025.111444	same	20	same	1	6909
96	18	F	PSYC4802-20134	0.98	Block	practice	4	20131025.111453	same	60	diff	0	2303
96	18	F	PSYC4802-20134	0.98	Block	practice	5	20131025.111457	diff	20	diff	1	4466
96	18	F	PSYC4802-20134	0.98	Block	practice	6	20131025.111504	same	20	same	1	1502
96	18	F	PSYC4802-20134	0.98	Block	practice	7	20131025.111507	diff	60	diff	1	3838
96	18	F	PSYC4802-20134	0.98	Block	practice	8	20131025.111513	diff	20	diff	1	7583
96	18	F	PSYC4802-20134	0.98	Block	practice	9	20131025.111523	diff	60	diff	1	4314
96	18	F	PSYC4802-20134	0.98	Block	practice	10	20131025.111529	diff	100	diff	1	8902
96	18	F	PSYC4802-20134	0.98	Block	practice	11	20131025.111540	same	20	same	1	3564
96	18	F	PSYC4802-20134	0.98	Block	practice	12	20131025.111546	same	100	diff	0	5726
96	18	F	PSYC4802-20134	0.98	Block	practice	13	20131025.111553	same	100	diff	0	18908
96	18	F	PSYC4802-20134	0.98	Block	practice	14	20131025.111614	same	100	same	1	4290
96	18	F	PSYC4802-20134	0.98	Block	practice	15	20131025.111621	same	60	diff	0	3674
96	18	F	PSYC4802-20134	0.98	Block	practice	16	20131025.111627	diff	100	same	0	2146
96	18	F	PSYC4802-20134	0.98	Block	practice	17	20131025.111631	same	60	diff	0	3065
96	18	F	PSYC4802-20134	0.98	Block	practice	18	20131025.111636	same	100	diff	0	1507
96	18	F	PSYC4802-20134	0.98	Block	practice	19	20131025.111639	same	60	same	1	1108
96	18	F	PSYC4802-20134	0.98	Block	practice	20	20131025.111643	diff	60	same	0	1372
96	18	F	PSYC4802-20134	0.98	Block	practice	21	20131025.111646	diff	20	same	0	6066
96	18	F	PSYC4802-20134	0.98	Block	practice	22	20131025.111654	same	20	same	1	1249
96	18	F	PSYC4802-20134	0.98	Block	practice	23	20131025.111658	diff	20	diff	1	9323
96	18	F	PSYC4802-20134	0.98	Block	practice	24	20131025.111709	diff	100	same	0	2181
96	18	F	PSYC4802-20134	0.98	Block	practice	25	20131025.111713	diff	60	same	0	2316
96	18	F	PSYC4802-20134	0.98	Block	practice	26	20131025.111717	diff	100	diff	1	2960
96	18	F	PSYC4802-20134	0.98	Block	practice	27	20131025.111722	same	100	diff	0	4765
96	18	F	PSYC4802-20134	0.98	Block	practice	28	20131025.111729	same	60	same	1	968
96	18	F	PSYC4802-20134	0.98	Block	practice	29	20131025.111732	diff	100	diff	1	4524
96	18	F	PSYC4802-20134	0.98	Block	practice	30	20131025.111739	diff	60	diff	1	3511
96	18	F	PSYC4802-20134	0.98	Block	exp	31	20131025.111745	same	20	same	1	1384
96	18	F	PSYC4802-20134	0.98	Block	exp	32	20131025.111748	same	60	same	1	1091
96	18	F	PSYC4802-20134	0.98	Block	exp	33	20131025.111751	same	100	diff	0	1630
96	18	F	PSYC4802-20134	0.98	Block	exp	34	20131025.111755	diff	100	diff	1	1489
96	18	F	PSYC4802-20134	0.98	Block	exp	35	20131025.111759	diff	100	same	0	4190
96	18	F	PSYC4802-20134	0.98	Block	exp	36	20131025.111805	diff	60	diff	1	3558
96	18	F	PSYC4802-20134	0.98	Block	exp	37	20131025.111811	diff	100	diff	1	4613
96	18	F	PSYC4802-20134	0.98	Block	exp	38	20131025.111817	diff	20	diff	1	5843
96	18	F	PSYC4802-20134	0.98	Block	exp	39	20131025.111825	same	100	diff	0	4578
96	18	F	PSYC4802-20134	0.98	Block	exp	40	20131025.111832	diff	20	same	0	1372
96	18	F	PSYC4802-20134	0.98	Block	exp	41	20131025.111835	same	20	diff	0	2263
96	18	F	PSYC4802-20134	0.98	Block	exp	42	20131025.111840	same	20	same	1	886
96	18	F	PSYC4802-20134	0.98	Block	exp	43	20131025.111843	same	60	diff	0	2643
96	18	F	PSYC4802-20134	0.98	Block	exp	44	20131025.111847	diff	100	diff	1	2327
96	18	F	PSYC4802-20134	0.98	Block	exp	45	20131025.111852	diff	20	same	0	3288
96	18	F	PSYC4802-20134	0.98	Block	exp	46	20131025.111857	diff	20	same	0	2562
96	18	F	PSYC4802-20134	0.98	Block	exp	47	20131025.111902	diff	100	diff	1	10566
96	18	F	PSYC4802-20134	0.98	Block	exp	48	20131025.111915	diff	60	same	0	6311
96	18	F	PSYC4802-20134	0.98	Block	exp	49	20131025.111923	same	100	diff	0	11655
96	18	F	PSYC4802-20134	0.98	Block	exp	50	20131025.111937	same	100	diff	0	6804
96	18	F	PSYC4802-20134	0.98	Block	exp	51	20131025.111953	diff	60	same	0	2896
96	18	F	PSYC4802-20134	0.98	Block	exp	52	20131025.111958	diff	100	diff	1	2467
96	18	F	PSYC4802-20134	0.98	Block	exp	53	20131025.112002	same	20	diff	0	1566
96	18	F	PSYC4802-20134	0.98	Block	exp	54	20131025.112006	same	20	same	1	2661
96	18	F	PSYC4802-20134	0.98	Block	exp	55	20131025.112011	diff	20	same	0	4185
96	18	F	PSYC4802-20134	0.98	Block	exp	56	20131025.112017	diff	100	diff	1	4132
96	18	F	PSYC4802-20134	0.98	Block	exp	57	20131025.112023	diff	60	diff	1	2005
96	18	F	PSYC4802-20134	0.98	Block	exp	58	20131025.112027	diff	20	same	0	2861
96	18	F	PSYC4802-20134	0.98	Block	exp	59	20131025.112032	same	100	same	1	868
96	18	F	PSYC4802-20134	0.98	Block	exp	60	20131025.112035	same	20	same	1	821
96	18	F	PSYC4802-20134	0.98	Block	exp	61	20131025.112038	same	60	diff	0	1184
96	18	F	PSYC4802-20134	0.98	Block	exp	62	20131025.112042	diff	20	same	0	1589
96	18	F	PSYC4802-20134	0.98	Block	exp	63	20131025.112045	diff	100	same	0	2274
96	18	F	PSYC4802-20134	0.98	Block	exp	64	20131025.112050	same	60	same	1	2849
96	18	F	PSYC4802-20134	0.98	Block	exp	65	20131025.112055	diff	20	diff	1	2070
96	18	F	PSYC4802-20134	0.98	Block	exp	66	20131025.112059	same	100	diff	0	1431
96	18	F	PSYC4802-20134	0.98	Block	exp	67	20131025.112103	diff	20	same	0	904
96	18	F	PSYC4802-20134	0.98	Block	exp	68	20131025.112106	diff	20	same	0	3652
96	18	F	PSYC4802-20134	0.98	Block	exp	69	20131025.112111	diff	60	diff	1	5093
96	18	F	PSYC4802-20134	0.98	Block	exp	70	20131025.112119	same	20	diff	0	7530
96	18	F	PSYC4802-20134	0.98	Block	exp	71	20131025.112128	diff	60	diff	1	4683
96	18	F	PSYC4802-20134	0.98	Block	exp	72	20131025.112135	diff	20	same	0	2849
96	18	F	PSYC4802-20134	0.98	Block	exp	73	20131025.112140	same	100	diff	0	1003
96	18	F	PSYC4802-20134	0.98	Block	exp	74	20131025.112143	diff	100	same	0	1701
96	18	F	PSYC4802-20134	0.98	Block	exp	75	20131025.112147	diff	20	diff	1	6130
96	18	F	PSYC4802-20134	0.98	Block	exp	76	20131025.112155	diff	60	diff	1	3194
96	18	F	PSYC4802-20134	0.98	Block	exp	77	20131025.112200	same	60	diff	0	1776
96	18	F	PSYC4802-20134	0.98	Block	exp	78	20131025.112204	same	60	diff	0	1348
96	18	F	PSYC4802-20134	0.98	Block	exp	79	20131025.112208	diff	20	diff	1	1730
96	18	F	PSYC4802-20134	0.98	Block	exp	80	20131025.112211	same	60	same	1	3007
96	18	F	PSYC4802-20134	0.98	Block	exp	81	20131025.112217	same	60	same	1	4472
96	18	F	PSYC4802-20134	0.98	Block	exp	82	20131025.112223	diff	100	diff	1	2567
96	18	F	PSYC4802-20134	0.98	Block	exp	83	20131025.112228	diff	60	diff	1	1044
96	18	F	PSYC4802-20134	0.98	Block	exp	84	20131025.112231	same	100	same	1	6563
96	18	F	PSYC4802-20134	0.98	Block	exp	85	20131025.112240	diff	20	same	0	885
96	18	F	PSYC4802-20134	0.98	Block	exp	86	20131025.112243	diff	20	same	0	1319
96	18	F	PSYC4802-20134	0.98	Block	exp	87	20131025.112246	diff	100	diff	1	979
96	18	F	PSYC4802-20134	0.98	Block	exp	88	20131025.112249	same	20	diff	0	1671
96	18	F	PSYC4802-20134	0.98	Block	exp	89	20131025.112253	diff	100	same	0	1735
96	18	F	PSYC4802-20134	0.98	Block	exp	90	20131025.112257	same	100	same	1	5691
96	18	F	PSYC4802-20134	0.98	Block	exp	91	20131025.112305	diff	60	same	0	3446
96	18	F	PSYC4802-20134	0.98	Block	exp	92	20131025.112310	diff	60	diff	1	7320
96	18	F	PSYC4802-20134	0.98	Block	exp	93	20131025.112320	diff	20	same	0	12299
96	18	F	PSYC4802-20134	0.98	Block	exp	94	20131025.112334	same	60	diff	0	3013
96	18	F	PSYC4802-20134	0.98	Block	exp	95	20131025.112339	same	100	diff	0	4437
96	18	F	PSYC4802-20134	0.98	Block	exp	96	20131025.112346	diff	20	same	0	1911
96	18	F	PSYC4802-20134	0.98	Block	exp	97	20131025.112350	same	100	diff	0	2837
96	18	F	PSYC4802-20134	0.98	Block	exp	98	20131025.112354	same	20	same	1	1149
96	18	F	PSYC4802-20134	0.98	Block	exp	99	20131025.112358	diff	20	diff	1	7571
96	18	F	PSYC4802-20134	0.98	Block	exp	100	20131025.112407	same	60	same	1	2626
96	18	F	PSYC4802-20134	0.98	Block	exp	101	20131025.112442	diff	60	diff	1	3235
96	18	F	PSYC4802-20134	0.98	Block	exp	102	20131025.112447	diff	60	diff	1	2187
96	18	F	PSYC4802-20134	0.98	Block	exp	103	20131025.112451	same	60	diff	0	950
96	18	F	PSYC4802-20134	0.98	Block	exp	104	20131025.112454	diff	60	same	0	3124
96	18	F	PSYC4802-20134	0.98	Block	exp	105	20131025.112500	same	60	diff	0	2931
96	18	F	PSYC4802-20134	0.98	Block	exp	106	20131025.112505	same	100	same	1	6803
96	18	F	PSYC4802-20134	0.98	Block	exp	107	20131025.112514	diff	20	same	0	1723
96	18	F	PSYC4802-20134	0.98	Block	exp	108	20131025.112517	same	20	same	1	3862
96	18	F	PSYC4802-20134	0.98	Block	exp	109	20131025.112523	diff	20	diff	1	1648
96	18	F	PSYC4802-20134	0.98	Block	exp	110	20131025.112527	same	60	same	1	18305
96	18	F	PSYC4802-20134	0.98	Block	exp	111	20131025.112548	diff	60	same	0	1934
96	18	F	PSYC4802-20134	0.98	Block	exp	112	20131025.112552	diff	100	diff	1	4541
96	18	F	PSYC4802-20134	0.98	Block	exp	113	20131025.112558	same	60	same	1	8328
96	18	F	PSYC4802-20134	0.98	Block	exp	114	20131025.112609	diff	100	diff	1	5274
96	18	F	PSYC4802-20134	0.98	Block	exp	115	20131025.112616	diff	20	diff	1	12388
96	18	F	PSYC4802-20134	0.98	Block	exp	116	20131025.112631	diff	20	same	0	5081
96	18	F	PSYC4802-20134	0.98	Block	exp	117	20131025.112638	diff	20	same	0	3264
96	18	F	PSYC4802-20134	0.98	Block	exp	118	20131025.112643	same	100	same	1	11023
96	18	F	PSYC4802-20134	0.98	Block	exp	119	20131025.112656	same	20	same	1	2708
96	18	F	PSYC4802-20134	0.98	Block	exp	120	20131025.112701	same	20	diff	0	14561
96	18	F	PSYC4802-20134	0.98	Block	exp	121	20131025.112718	same	60	same	1	9921
96	18	F	PSYC4802-20134	0.98	Block	exp	122	20131025.112730	diff	60	same	0	7015
96	18	F	PSYC4802-20134	0.98	Block	exp	123	20131025.112739	same	60	diff	0	23239
96	18	F	PSYC4802-20134	0.98	Block	exp	124	20131025.112804	same	60	same	1	16231
96	18	F	PSYC4802-20134	0.98	Block	exp	125	20131025.112823	same	60	same	1	6001
96	18	F	PSYC4802-20134	0.98	Block	exp	126	20131025.112831	same	100	same	1	12429
96	18	F	PSYC4802-20134	0.98	Block	exp	127	20131025.112845	same	100	same	1	10588
96	18	F	PSYC4802-20134	0.98	Block	exp	128	20131025.112858	same	20	diff	0	5872
96	18	F	PSYC4802-20134	0.98	Block	exp	129	20131025.112906	same	20	diff	0	2854
96	18	F	PSYC4802-20134	0.98	Block	exp	130	20131025.112911	same	60	diff	0	1764
96	18	F	PSYC4802-20134	0.98	Block	exp	131	20131025.112915	same	20	same	1	9235
96	18	F	PSYC4802-20134	0.98	Block	exp	132	20131025.112926	same	100	diff	0	5567
96	18	F	PSYC4802-20134	0.98	Block	exp	133	20131025.112934	same	60	diff	0	1952
96	18	F	PSYC4802-20134	0.98	Block	exp	134	20131025.112938	diff	100	same	0	640
96	18	F	PSYC4802-20134	0.98	Block	exp	135	20131025.112941	diff	60	same	0	17514
96	18	F	PSYC4802-20134	0.98	Block	exp	136	20131025.113000	same	100	diff	0	886
96	18	F	PSYC4802-20134	0.98	Block	exp	137	20131025.113003	diff	100	diff	1	10389
96	18	F	PSYC4802-20134	0.98	Block	exp	138	20131025.113016	same	100	same	1	9387
96	18	F	PSYC4802-20134	0.98	Block	exp	139	20131025.113027	same	60	same	1	4600
96	18	F	PSYC4802-20134	0.98	Block	exp	140	20131025.113034	diff	60	diff	1	8872
96	18	F	PSYC4802-20134	0.98	Block	exp	141	20131025.113045	same	20	diff	0	8069
96	18	F	PSYC4802-20134	0.98	Block	exp	142	20131025.113055	diff	20	same	0	3581
96	18	F	PSYC4802-20134	0.98	Block	exp	143	20131025.113101	diff	100	diff	1	3394
96	18	F	PSYC4802-20134	0.98	Block	exp	144	20131025.113106	same	60	same	1	7800
96	18	F	PSYC4802-20134	0.98	Block	exp	145	20131025.113116	same	100	same	1	5298
96	18	F	PSYC4802-20134	0.98	Block	exp	146	20131025.113123	diff	60	diff	1	9381
96	18	F	PSYC4802-20134	0.98	Block	exp	147	20131025.113135	same	100	diff	0	11391
96	18	F	PSYC4802-20134	0.98	Block	exp	148	20131025.113148	diff	60	same	0	3745
96	18	F	PSYC4802-20134	0.98	Block	exp	149	20131025.113154	same	20	same	1	2022
96	18	F	PSYC4802-20134	0.98	Block	exp	150	20131025.113158	same	100	same	1	5181
96	18	F	PSYC4802-20134	0.98	Block	exp	151	20131025.113304	diff	100	diff	1	4905
96	18	F	PSYC4802-20134	0.98	Block	exp	152	20131025.113311	same	60	same	1	8614
96	18	F	PSYC4802-20134	0.98	Block	exp	153	20131025.113322	same	60	diff	0	8163
96	18	F	PSYC4802-20134	0.98	Block	exp	154	20131025.113332	same	60	diff	0	13893
96	18	F	PSYC4802-20134	0.98	Block	exp	155	20131025.113348	diff	100	same	0	4495
96	18	F	PSYC4802-20134	0.98	Block	exp	156	20131025.113355	same	60	diff	0	8679
96	18	F	PSYC4802-20134	0.98	Block	exp	157	20131025.113405	diff	20	diff	1	1870
96	18	F	PSYC4802-20134	0.98	Block	exp	158	20131025.113409	diff	60	same	0	5140
96	18	F	PSYC4802-20134	0.98	Block	exp	159	20131025.113417	diff	100	same	0	24177
96	18	F	PSYC4802-20134	0.98	Block	exp	160	20131025.113443	same	20	same	1	2309
96	18	F	PSYC4802-20134	0.98	Block	exp	161	20131025.113447	diff	20	diff	1	3458
96	18	F	PSYC4802-20134	0.98	Block	exp	162	20131025.113453	diff	20	diff	1	11186
96	18	F	PSYC4802-20134	0.98	Block	exp	163	20131025.113506	same	100	same	1	4812
96	18	F	PSYC4802-20134	0.98	Block	exp	164	20131025.113513	same	20	same	1	3306
96	18	F	PSYC4802-20134	0.98	Block	exp	165	20131025.113519	same	100	same	1	3658
96	18	F	PSYC4802-20134	0.98	Block	exp	166	20131025.113524	diff	60	diff	1	5409
96	18	F	PSYC4802-20134	0.98	Block	exp	167	20131025.113532	same	60	diff	0	10899
96	18	F	PSYC4802-20134	0.98	Block	exp	168	20131025.113545	same	60	diff	0	4020
96	18	F	PSYC4802-20134	0.98	Block	exp	169	20131025.113551	diff	100	diff	1	5883
96	18	F	PSYC4802-20134	0.98	Block	exp	170	20131025.113559	diff	100	diff	1	5432
96	18	F	PSYC4802-20134	0.98	Block	exp	171	20131025.113606	same	20	same	1	2386
96	18	F	PSYC4802-20134	0.98	Block	exp	172	20131025.113611	same	100	same	1	2943
96	18	F	PSYC4802-20134	0.98	Block	exp	173	20131025.113616	same	60	same	1	5708
96	18	F	PSYC4802-20134	0.98	Block	exp	174	20131025.113624	diff	20	diff	1	6739
96	18	F	PSYC4802-20134	0.98	Block	exp	175	20131025.113632	same	100	diff	0	3528
96	18	F	PSYC4802-20134	0.98	Block	exp	176	20131025.113638	diff	60	same	0	8895
96	18	F	PSYC4802-20134	0.98	Block	exp	177	20131025.113649	same	20	same	1	2163
96	18	F	PSYC4802-20134	0.98	Block	exp	178	20131025.113653	diff	100	diff	1	3845
96	18	F	PSYC4802-20134	0.98	Block	exp	179	20131025.113659	same	60	diff	0	4243
96	18	F	PSYC4802-20134	0.98	Block	exp	180	20131025.113705	same	20	same	1	2169
96	18	F	PSYC4802-20134	0.98	Block	exp	181	20131025.113710	diff	100	diff	1	5209
96	18	F	PSYC4802-20134	0.98	Block	exp	182	20131025.113717	same	60	same	1	9270
96	18	F	PSYC4802-20134	0.98	Block	exp	183	20131025.113728	same	20	same	1	4823
96	18	F	PSYC4802-20134	0.98	Block	exp	184	20131025.113735	diff	60	diff	1	7026
96	18	F	PSYC4802-20134	0.98	Block	exp	185	20131025.113745	diff	60	diff	1	1753
96	18	F	PSYC4802-20134	0.98	Block	exp	186	20131025.113748	diff	100	diff	1	4396
96	18	F	PSYC4802-20134	0.98	Block	exp	187	20131025.113755	same	100	diff	0	6189
96	18	F	PSYC4802-20134	0.98	Block	exp	188	20131025.113803	diff	100	same	0	11303
96	18	F	PSYC4802-20134	0.98	Block	exp	189	20131025.113817	same	100	diff	0	3066
96	18	F	PSYC4802-20134	0.98	Block	exp	190	20131025.113822	diff	60	diff	1	9979
96	18	F	PSYC4802-20134	0.98	Block	exp	191	20131025.113834	diff	20	diff	1	3423
96	18	F	PSYC4802-20134	0.98	Block	exp	192	20131025.113839	diff	60	diff	1	11562
96	18	F	PSYC4802-20134	0.98	Block	exp	193	20131025.113853	diff	100	diff	1	3740
96	18	F	PSYC4802-20134	0.98	Block	exp	194	20131025.113859	diff	20	diff	1	7753
96	18	F	PSYC4802-20134	0.98	Block	exp	195	20131025.113909	same	60	diff	0	4571
96	18	F	PSYC4802-20134	0.98	Block	exp	196	20131025.113915	diff	60	same	0	4102
96	18	F	PSYC4802-20134	0.98	Block	exp	197	20131025.113921	same	20	same	1	2327
96	18	F	PSYC4802-20134	0.98	Block	exp	198	20131025.113926	diff	100	diff	1	7208
96	18	F	PSYC4802-20134	0.98	Block	exp	199	20131025.113935	diff	100	diff	1	3130
96	18	F	PSYC4802-20134	0.98	Block	exp	200	20131025.113940	same	100	diff	0	5825
96	18	F	PSYC4802-20134	0.98	Block	exp	201	20131025.114004	same	60	diff	0	6687
96	18	F	PSYC4802-20134	0.98	Block	exp	202	20131025.114013	same	100	same	1	1812
96	18	F	PSYC4802-20134	0.98	Block	exp	203	20131025.114017	same	100	diff	0	1577
96	18	F	PSYC4802-20134	0.98	Block	exp	204	20131025.114020	same	60	same	1	3951
96	18	F	PSYC4802-20134	0.98	Block	exp	205	20131025.114026	diff	100	diff	1	4238
96	18	F	PSYC4802-20134	0.98	Block	exp	206	20131025.114033	same	100	diff	0	2497
96	18	F	PSYC4802-20134	0.98	Block	exp	207	20131025.114037	diff	100	same	0	4723
96	18	F	PSYC4802-20134	0.98	Block	exp	208	20131025.114044	same	20	same	1	4396
96	18	F	PSYC4802-20134	0.98	Block	exp	209	20131025.114051	same	100	diff	0	6903
96	18	F	PSYC4802-20134	0.98	Block	exp	210	20131025.114100	same	100	same	1	2814
96	18	F	PSYC4802-20134	0.98	Block	exp	211	20131025.114105	same	20	same	1	1132
96	18	F	PSYC4802-20134	0.98	Block	exp	212	20131025.114108	diff	60	diff	1	3006
96	18	F	PSYC4802-20134	0.98	Block	exp	213	20131025.114113	diff	100	same	0	2784
96	18	F	PSYC4802-20134	0.98	Block	exp	214	20131025.114118	same	20	same	1	1906
96	18	F	PSYC4802-20134	0.98	Block	exp	215	20131025.114122	diff	60	diff	1	4068
96	18	F	PSYC4802-20134	0.98	Block	exp	216	20131025.114128	same	100	diff	0	2486
96	18	F	PSYC4802-20134	0.98	Block	exp	217	20131025.114133	diff	100	diff	1	3956
96	18	F	PSYC4802-20134	0.98	Block	exp	218	20131025.114139	diff	20	diff	1	5474
96	18	F	PSYC4802-20134	0.98	Block	exp	219	20131025.114147	diff	20	diff	1	5661
96	18	F	PSYC4802-20134	0.98	Block	exp	220	20131025.114154	same	20	same	1	1647
96	18	F	PSYC4802-20134	0.98	Block	exp	221	20131025.114158	diff	20	same	0	3593
96	18	F	PSYC4802-20134	0.98	Block	exp	222	20131025.114204	same	100	same	1	7718
96	18	F	PSYC4802-20134	0.98	Block	exp	223	20131025.114214	diff	100	diff	1	12575
96	18	F	PSYC4802-20134	0.98	Block	exp	224	20131025.114228	same	20	diff	0	5732
96	18	F	PSYC4802-20134	0.98	Block	exp	225	20131025.114236	same	20	same	1	4712
96	18	F	PSYC4802-20134	0.98	Block	exp	226	20131025.114243	same	20	same	1	5380
96	18	F	PSYC4802-20134	0.98	Block	exp	227	20131025.114251	diff	20	diff	1	3645
96	18	F	PSYC4802-20134	0.98	Block	exp	228	20131025.114256	same	20	same	1	1917
96	18	F	PSYC4802-20134	0.98	Block	exp	229	20131025.114300	same	20	same	1	1548
96	18	F	PSYC4802-20134	0.98	Block	exp	230	20131025.114304	diff	60	diff	1	1940
96	18	F	PSYC4802-20134	0.98	Block	exp	231	20131025.114308	same	20	same	1	2256
96	18	F	PSYC4802-20134	0.98	Block	exp	232	20131025.114312	same	20	same	1	2608
96	18	F	PSYC4802-20134	0.98	Block	exp	233	20131025.114317	same	100	diff	0	2356
96	18	F	PSYC4802-20134	0.98	Block	exp	234	20131025.114322	same	20	same	1	1519
96	18	F	PSYC4802-20134	0.98	Block	exp	235	20131025.114325	diff	20	diff	1	2720
96	18	F	PSYC4802-20134	0.98	Block	exp	236	20131025.114330	diff	20	same	0	5872
96	18	F	PSYC4802-20134	0.98	Block	exp	237	20131025.114338	diff	60	diff	1	2966
96	18	F	PSYC4802-20134	0.98	Block	exp	238	20131025.114343	diff	20	diff	1	7407
96	18	F	PSYC4802-20134	0.98	Block	exp	239	20131025.114352	same	20	same	1	3405
96	18	F	PSYC4802-20134	0.98	Block	exp	240	20131025.114358	diff	100	diff	1	2690
96	18	F	PSYC4802-20134	0.98	Block	exp	241	20131025.114403	diff	20	diff	1	2409
96	18	F	PSYC4802-20134	0.98	Block	exp	242	20131025.114407	same	20	same	1	1326
96	18	F	PSYC4802-20134	0.98	Block	exp	243	20131025.114411	same	60	same	1	2222
96	18	F	PSYC4802-20134	0.98	Block	exp	244	20131025.114415	diff	60	diff	1	2597
96	18	F	PSYC4802-20134	0.98	Block	exp	245	20131025.114420	diff	60	same	0	2404
96	18	F	PSYC4802-20134	0.98	Block	exp	246	20131025.114424	diff	20	same	0	2597
96	18	F	PSYC4802-20134	0.98	Block	exp	247	20131025.114429	diff	60	diff	1	2508
96	18	F	PSYC4802-20134	0.98	Block	exp	248	20131025.114433	diff	100	same	0	3112
96	18	F	PSYC4802-20134	0.98	Block	exp	249	20131025.114439	diff	60	diff	1	6639
96	18	F	PSYC4802-20134	0.98	Block	exp	250	20131025.114447	same	20	same	1	3886
96	18	F	PSYC4802-20134	0.98	Block	exp	251	20131025.114457	same	100	same	1	2813
96	18	F	PSYC4802-20134	0.98	Block	exp	252	20131025.114502	diff	20	diff	1	3341
96	18	F	PSYC4802-20134	0.98	Block	exp	253	20131025.114507	diff	100	same	0	1876
96	18	F	PSYC4802-20134	0.98	Block	exp	254	20131025.114511	diff	60	diff	1	3054
96	18	F	PSYC4802-20134	0.98	Block	exp	255	20131025.114516	same	60	same	1	1073
96	18	F	PSYC4802-20134	0.98	Block	exp	256	20131025.114520	same	60	same	1	2451
96	18	F	PSYC4802-20134	0.98	Block	exp	257	20131025.114524	same	60	diff	0	4613
96	18	F	PSYC4802-20134	0.98	Block	exp	258	20131025.114531	same	60	same	1	1044
96	18	F	PSYC4802-20134	0.98	Block	exp	259	20131025.114534	same	20	same	1	1202
96	18	F	PSYC4802-20134	0.98	Block	exp	260	20131025.114537	same	60	same	1	2826
96	18	F	PSYC4802-20134	0.98	Block	exp	261	20131025.114542	diff	100	diff	1	3435
96	18	F	PSYC4802-20134	0.98	Block	exp	262	20131025.114548	diff	20	diff	1	2374
96	18	F	PSYC4802-20134	0.98	Block	exp	263	20131025.114552	same	20	same	1	1278
96	18	F	PSYC4802-20134	0.98	Block	exp	264	20131025.114555	diff	100	diff	1	1366
96	18	F	PSYC4802-20134	0.98	Block	exp	265	20131025.114559	diff	60	same	0	2064
96	18	F	PSYC4802-20134	0.98	Block	exp	266	20131025.114603	diff	20	diff	1	921
96	18	F	PSYC4802-20134	0.98	Block	exp	267	20131025.114606	same	100	same	1	3223
96	18	F	PSYC4802-20134	0.98	Block	exp	268	20131025.114611	diff	100	diff	1	4091
96	18	F	PSYC4802-20134	0.98	Block	exp	269	20131025.114617	diff	20	diff	1	2087
96	18	F	PSYC4802-20134	0.98	Block	exp	270	20131025.114621	same	60	same	1	3370
96	18	F	PSYC4802-20134	0.98	Block	exp	271	20131025.114627	diff	60	diff	1	5362
96	18	F	PSYC4802-20134	0.98	Block	exp	272	20131025.114634	same	20	same	1	1155
96	18	F	PSYC4802-20134	0.98	Block	exp	273	20131025.114638	diff	20	diff	1	2439
96	18	F	PSYC4802-20134	0.98	Block	exp	274	20131025.114642	diff	60	diff	1	5796
96	18	F	PSYC4802-20134	0.98	Block	exp	275	20131025.114650	same	100	diff	0	2720
96	18	F	PSYC4802-20134	0.98	Block	exp	276	20131025.114655	same	60	same	1	3142
96	18	F	PSYC4802-20134	0.98	Block	exp	277	20131025.114700	same	60	diff	0	4202
96	18	F	PSYC4802-20134	0.98	Block	exp	278	20131025.114706	diff	20	same	0	3874
96	18	F	PSYC4802-20134	0.98	Block	exp	279	20131025.114712	same	100	same	1	3089
96	18	F	PSYC4802-20134	0.98	Block	exp	280	20131025.114717	same	20	same	1	962
96	18	F	PSYC4802-20134	0.98	Block	exp	281	20131025.114720	diff	100	same	0	6557
96	18	F	PSYC4802-20134	0.98	Block	exp	282	20131025.114729	diff	100	diff	1	1343
96	18	F	PSYC4802-20134	0.98	Block	exp	283	20131025.114733	diff	100	same	0	3347
96	18	F	PSYC4802-20134	0.98	Block	exp	284	20131025.114738	diff	60	diff	1	4367
96	18	F	PSYC4802-20134	0.98	Block	exp	285	20131025.114744	same	20	same	1	1079
96	18	F	PSYC4802-20134	0.98	Block	exp	286	20131025.114748	same	60	same	1	1671
96	18	F	PSYC4802-20134	0.98	Block	exp	287	20131025.114751	same	20	same	1	921
96	18	F	PSYC4802-20134	0.98	Block	exp	288	20131025.114754	same	100	same	1	1624
96	18	F	PSYC4802-20134	0.98	Block	exp	289	20131025.114758	diff	100	diff	1	2861
96	18	F	PSYC4802-20134	0.98	Block	exp	290	20131025.114803	same	60	diff	0	4993
96	18	F	PSYC4802-20134	0.98	Block	exp	291	20131025.114810	diff	60	diff	1	3998
96	18	F	PSYC4802-20134	0.98	Block	exp	292	20131025.114816	diff	60	diff	1	2292
96	18	F	PSYC4802-20134	0.98	Block	exp	293	20131025.114821	same	100	diff	0	3206
96	18	F	PSYC4802-20134	0.98	Block	exp	294	20131025.114826	same	100	same	1	3604
96	18	F	PSYC4802-20134	0.98	Block	exp	295	20131025.114832	diff	60	same	0	856
96	18	F	PSYC4802-20134	0.98	Block	exp	296	20131025.114834	same	100	same	1	5602
96	18	F	PSYC4802-20134	0.98	Block	exp	297	20131025.114842	same	100	same	1	1618
96	18	F	PSYC4802-20134	0.98	Block	exp	298	20131025.114846	diff	60	diff	1	3400
96	18	F	PSYC4802-20134	0.98	Block	exp	299	20131025.114851	diff	60	diff	1	1501
96	18	F	PSYC4802-20134	0.98	Block	exp	300	20131025.114855	diff	100	diff	1	5749
