Subject	Age	Sex	Experiment	Version	Block	TrialType	Trial	Timestamp	SameDiff	Rotation	Response	Acc	RT
12	18	f	PSYC4802-20134	0.98	Block	practice	1	20131014.112244	diff	20	same	0	17649
12	18	f	PSYC4802-20134	0.98	Block	practice	2	20131014.112303	diff	20	same	0	9716
12	18	f	PSYC4802-20134	0.98	Block	practice	3	20131014.112315	same	20	same	1	8960
12	18	f	PSYC4802-20134	0.98	Block	practice	4	20131014.112326	diff	60	same	0	5673
12	18	f	PSYC4802-20134	0.98	Block	practice	5	20131014.112334	diff	60	diff	1	7355
12	18	f	PSYC4802-20134	0.98	Block	practice	6	20131014.112343	same	20	same	1	6528
12	18	f	PSYC4802-20134	0.98	Block	practice	7	20131014.112352	same	20	same	1	10097
12	18	f	PSYC4802-20134	0.98	Block	practice	8	20131014.112404	diff	60	same	0	3142
12	18	f	PSYC4802-20134	0.98	Block	practice	9	20131014.112409	same	100	diff	0	1015
12	18	f	PSYC4802-20134	0.98	Block	practice	10	20131014.112412	same	100	same	1	1302
12	18	f	PSYC4802-20134	0.98	Block	practice	11	20131014.112415	diff	100	diff	1	2064
12	18	f	PSYC4802-20134	0.98	Block	practice	12	20131014.112419	same	100	diff	0	2814
12	18	f	PSYC4802-20134	0.98	Block	practice	13	20131014.112424	same	60	same	1	2977
12	18	f	PSYC4802-20134	0.98	Block	practice	14	20131014.112429	same	60	diff	0	3124
12	18	f	PSYC4802-20134	0.98	Block	practice	15	20131014.112434	same	100	same	1	2070
12	18	f	PSYC4802-20134	0.98	Block	practice	16	20131014.112438	diff	20	diff	1	2790
12	18	f	PSYC4802-20134	0.98	Block	practice	17	20131014.112443	same	20	same	1	2093
12	18	f	PSYC4802-20134	0.98	Block	practice	18	20131014.112447	same	20	same	1	1032
12	18	f	PSYC4802-20134	0.98	Block	practice	19	20131014.112450	diff	100	diff	1	2392
12	18	f	PSYC4802-20134	0.98	Block	practice	20	20131014.112455	diff	100	same	0	3065
12	18	f	PSYC4802-20134	0.98	Block	practice	21	20131014.112500	diff	100	same	0	1173
12	18	f	PSYC4802-20134	0.98	Block	practice	22	20131014.112503	same	60	same	1	2890
12	18	f	PSYC4802-20134	0.98	Block	practice	23	20131014.112508	same	100	same	1	1337
12	18	f	PSYC4802-20134	0.98	Block	practice	24	20131014.112511	diff	60	diff	1	1272
12	18	f	PSYC4802-20134	0.98	Block	practice	25	20131014.112514	same	60	same	1	1326
12	18	f	PSYC4802-20134	0.98	Block	practice	26	20131014.112518	same	60	same	1	1671
12	18	f	PSYC4802-20134	0.98	Block	practice	27	20131014.112521	diff	20	same	0	2667
12	18	f	PSYC4802-20134	0.98	Block	practice	28	20131014.112526	diff	100	same	0	844
12	18	f	PSYC4802-20134	0.98	Block	practice	29	20131014.112529	diff	60	same	0	1613
12	18	f	PSYC4802-20134	0.98	Block	practice	30	20131014.112533	diff	20	same	0	2813
12	18	f	PSYC4802-20134	0.98	Block	exp	31	20131014.112537	same	100	same	1	2251
12	18	f	PSYC4802-20134	0.98	Block	exp	32	20131014.112542	same	20	diff	0	1940
12	18	f	PSYC4802-20134	0.98	Block	exp	33	20131014.112546	diff	60	same	0	657
12	18	f	PSYC4802-20134	0.98	Block	exp	34	20131014.112548	diff	60	same	0	1343
12	18	f	PSYC4802-20134	0.98	Block	exp	35	20131014.112552	same	100	diff	0	1964
12	18	f	PSYC4802-20134	0.98	Block	exp	36	20131014.112556	diff	60	same	0	851
12	18	f	PSYC4802-20134	0.98	Block	exp	37	20131014.112558	same	60	same	1	1905
12	18	f	PSYC4802-20134	0.98	Block	exp	38	20131014.112602	same	20	same	1	1085
12	18	f	PSYC4802-20134	0.98	Block	exp	39	20131014.112606	same	60	diff	0	1976
12	18	f	PSYC4802-20134	0.98	Block	exp	40	20131014.112610	diff	100	same	0	875
12	18	f	PSYC4802-20134	0.98	Block	exp	41	20131014.112612	same	20	same	1	827
12	18	f	PSYC4802-20134	0.98	Block	exp	42	20131014.112615	same	60	same	1	3353
12	18	f	PSYC4802-20134	0.98	Block	exp	43	20131014.112621	same	100	diff	0	1648
12	18	f	PSYC4802-20134	0.98	Block	exp	44	20131014.112624	same	60	same	1	1835
12	18	f	PSYC4802-20134	0.98	Block	exp	45	20131014.112628	diff	20	same	0	1589
12	18	f	PSYC4802-20134	0.98	Block	exp	46	20131014.112632	diff	60	same	0	1167
12	18	f	PSYC4802-20134	0.98	Block	exp	47	20131014.112635	diff	60	same	0	1507
12	18	f	PSYC4802-20134	0.98	Block	exp	48	20131014.112639	diff	20	same	0	1308
12	18	f	PSYC4802-20134	0.98	Block	exp	49	20131014.112642	diff	20	same	0	722
12	18	f	PSYC4802-20134	0.98	Block	exp	50	20131014.112645	same	20	same	1	903
12	18	f	PSYC4802-20134	0.98	Block	exp	51	20131014.112659	diff	100	same	0	3347
12	18	f	PSYC4802-20134	0.98	Block	exp	52	20131014.112705	same	100	same	1	7208
12	18	f	PSYC4802-20134	0.98	Block	exp	53	20131014.112714	same	20	same	1	1149
12	18	f	PSYC4802-20134	0.98	Block	exp	54	20131014.112717	same	100	diff	0	3581
12	18	f	PSYC4802-20134	0.98	Block	exp	55	20131014.112723	diff	60	diff	1	1589
12	18	f	PSYC4802-20134	0.98	Block	exp	56	20131014.112726	diff	60	same	0	921
12	18	f	PSYC4802-20134	0.98	Block	exp	57	20131014.112729	same	60	same	1	2052
12	18	f	PSYC4802-20134	0.98	Block	exp	58	20131014.112733	same	100	same	1	862
12	18	f	PSYC4802-20134	0.98	Block	exp	59	20131014.112736	diff	20	same	0	1378
12	18	f	PSYC4802-20134	0.98	Block	exp	60	20131014.112740	same	60	same	1	745
12	18	f	PSYC4802-20134	0.98	Block	exp	61	20131014.112742	diff	60	multi	-2	845
12	18	f	PSYC4802-20134	0.98	Block	exp	62	20131014.112745	diff	100	same	0	3839
12	18	f	PSYC4802-20134	0.98	Block	exp	63	20131014.112751	same	60	same	1	1583
12	18	f	PSYC4802-20134	0.98	Block	exp	64	20131014.112755	same	100	same	1	1073
12	18	f	PSYC4802-20134	0.98	Block	exp	65	20131014.112758	diff	20	same	0	681
12	18	f	PSYC4802-20134	0.98	Block	exp	66	20131014.112800	diff	20	same	0	839
12	18	f	PSYC4802-20134	0.98	Block	exp	67	20131014.112803	diff	60	same	0	1513
12	18	f	PSYC4802-20134	0.98	Block	exp	68	20131014.112807	diff	100	same	0	3054
12	18	f	PSYC4802-20134	0.98	Block	exp	69	20131014.112812	same	60	same	1	3154
12	18	f	PSYC4802-20134	0.98	Block	exp	70	20131014.112817	diff	20	diff	1	2743
12	18	f	PSYC4802-20134	0.98	Block	exp	71	20131014.112822	same	20	same	1	1173
12	18	f	PSYC4802-20134	0.98	Block	exp	72	20131014.112825	same	20	same	1	1097
12	18	f	PSYC4802-20134	0.98	Block	exp	73	20131014.112828	same	20	same	1	1173
12	18	f	PSYC4802-20134	0.98	Block	exp	74	20131014.112831	diff	100	diff	1	1038
12	18	f	PSYC4802-20134	0.98	Block	exp	75	20131014.112834	diff	100	same	0	1817
12	18	f	PSYC4802-20134	0.98	Block	exp	76	20131014.112838	diff	60	same	0	704
12	18	f	PSYC4802-20134	0.98	Block	exp	77	20131014.112841	diff	60	same	0	1542
12	18	f	PSYC4802-20134	0.98	Block	exp	78	20131014.112844	diff	20	same	0	1695
12	18	f	PSYC4802-20134	0.98	Block	exp	79	20131014.112848	same	100	diff	0	1214
12	18	f	PSYC4802-20134	0.98	Block	exp	80	20131014.112851	diff	100	same	0	768
12	18	f	PSYC4802-20134	0.98	Block	exp	81	20131014.112854	same	60	diff	0	3915
12	18	f	PSYC4802-20134	0.98	Block	exp	82	20131014.112900	diff	20	same	0	3352
12	18	f	PSYC4802-20134	0.98	Block	exp	83	20131014.112905	diff	20	same	0	862
12	18	f	PSYC4802-20134	0.98	Block	exp	84	20131014.112908	same	100	same	1	2754
12	18	f	PSYC4802-20134	0.98	Block	exp	85	20131014.112913	diff	20	same	0	3680
12	18	f	PSYC4802-20134	0.98	Block	exp	86	20131014.112918	same	20	same	1	950
12	18	f	PSYC4802-20134	0.98	Block	exp	87	20131014.112921	diff	20	diff	1	6540
12	18	f	PSYC4802-20134	0.98	Block	exp	88	20131014.112930	same	20	same	1	4747
12	18	f	PSYC4802-20134	0.98	Block	exp	89	20131014.112937	diff	60	same	0	9979
12	18	f	PSYC4802-20134	0.98	Block	exp	90	20131014.112949	diff	60	same	0	3669
12	18	f	PSYC4802-20134	0.98	Block	exp	91	20131014.112954	diff	100	same	0	3077
12	18	f	PSYC4802-20134	0.98	Block	exp	92	20131014.113000	diff	100	diff	1	3071
12	18	f	PSYC4802-20134	0.98	Block	exp	93	20131014.113005	same	20	diff	0	2761
12	18	f	PSYC4802-20134	0.98	Block	exp	94	20131014.113009	diff	60	diff	1	4677
12	18	f	PSYC4802-20134	0.98	Block	exp	95	20131014.113016	diff	60	diff	1	3622
12	18	f	PSYC4802-20134	0.98	Block	exp	96	20131014.113022	same	20	same	1	1249
12	18	f	PSYC4802-20134	0.98	Block	exp	97	20131014.113025	same	100	diff	0	7090
12	18	f	PSYC4802-20134	0.98	Block	exp	98	20131014.113034	same	20	same	1	844
12	18	f	PSYC4802-20134	0.98	Block	exp	99	20131014.113037	diff	100	same	0	2210
12	18	f	PSYC4802-20134	0.98	Block	exp	100	20131014.113041	diff	60	same	0	4794
12	18	f	PSYC4802-20134	0.98	Block	exp	101	20131014.113056	same	60	diff	0	3534
12	18	f	PSYC4802-20134	0.98	Block	exp	102	20131014.113102	diff	100	same	0	4472
12	18	f	PSYC4802-20134	0.98	Block	exp	103	20131014.113108	diff	100	same	0	1536
12	18	f	PSYC4802-20134	0.98	Block	exp	104	20131014.113111	diff	100	diff	1	17808
12	18	f	PSYC4802-20134	0.98	Block	exp	105	20131014.113131	same	100	same	1	1970
12	18	f	PSYC4802-20134	0.98	Block	exp	106	20131014.113135	same	20	same	1	1349
12	18	f	PSYC4802-20134	0.98	Block	exp	107	20131014.113139	diff	100	same	0	2679
12	18	f	PSYC4802-20134	0.98	Block	exp	108	20131014.113143	diff	60	diff	1	2169
12	18	f	PSYC4802-20134	0.98	Block	exp	109	20131014.113148	same	100	same	1	3400
12	18	f	PSYC4802-20134	0.98	Block	exp	110	20131014.113153	diff	20	diff	1	1677
12	18	f	PSYC4802-20134	0.98	Block	exp	111	20131014.113157	same	60	same	1	1806
12	18	f	PSYC4802-20134	0.98	Block	exp	112	20131014.113200	same	60	same	1	3880
12	18	f	PSYC4802-20134	0.98	Block	exp	113	20131014.113206	diff	20	diff	1	2438
12	18	f	PSYC4802-20134	0.98	Block	exp	114	20131014.113211	diff	20	same	0	1642
12	18	f	PSYC4802-20134	0.98	Block	exp	115	20131014.113214	same	60	same	1	1981
12	18	f	PSYC4802-20134	0.98	Block	exp	116	20131014.113218	same	100	same	1	2392
12	18	f	PSYC4802-20134	0.98	Block	exp	117	20131014.113223	same	20	same	1	1062
12	18	f	PSYC4802-20134	0.98	Block	exp	118	20131014.113226	diff	100	diff	1	3657
12	18	f	PSYC4802-20134	0.98	Block	exp	119	20131014.113232	diff	20	diff	1	1454
12	18	f	PSYC4802-20134	0.98	Block	exp	120	20131014.113235	diff	60	diff	1	1583
12	18	f	PSYC4802-20134	0.98	Block	exp	121	20131014.113239	same	60	same	1	1296
12	18	f	PSYC4802-20134	0.98	Block	exp	122	20131014.113242	diff	60	diff	1	2725
12	18	f	PSYC4802-20134	0.98	Block	exp	123	20131014.113247	diff	60	same	0	1776
12	18	f	PSYC4802-20134	0.98	Block	exp	124	20131014.113251	same	100	diff	0	3475
12	18	f	PSYC4802-20134	0.98	Block	exp	125	20131014.113256	same	60	same	1	2345
12	18	f	PSYC4802-20134	0.98	Block	exp	126	20131014.113301	diff	20	diff	1	2287
12	18	f	PSYC4802-20134	0.98	Block	exp	127	20131014.113305	same	60	same	1	1272
12	18	f	PSYC4802-20134	0.98	Block	exp	128	20131014.113308	diff	60	same	0	3019
12	18	f	PSYC4802-20134	0.98	Block	exp	129	20131014.113313	same	100	diff	0	3985
12	18	f	PSYC4802-20134	0.98	Block	exp	130	20131014.113319	diff	60	diff	1	1894
12	18	f	PSYC4802-20134	0.98	Block	exp	131	20131014.113323	diff	100	diff	1	1530
12	18	f	PSYC4802-20134	0.98	Block	exp	132	20131014.113327	same	100	same	1	1003
12	18	f	PSYC4802-20134	0.98	Block	exp	133	20131014.113330	same	60	same	1	1307
12	18	f	PSYC4802-20134	0.98	Block	exp	134	20131014.113333	same	100	same	1	3001
12	18	f	PSYC4802-20134	0.98	Block	exp	135	20131014.113338	same	20	same	1	1150
12	18	f	PSYC4802-20134	0.98	Block	exp	136	20131014.113341	same	100	same	1	4337
12	18	f	PSYC4802-20134	0.98	Block	exp	137	20131014.113348	diff	100	same	0	3171
12	18	f	PSYC4802-20134	0.98	Block	exp	138	20131014.113353	diff	100	same	0	4588
12	18	f	PSYC4802-20134	0.98	Block	exp	139	20131014.113359	diff	60	diff	1	1091
12	18	f	PSYC4802-20134	0.98	Block	exp	140	20131014.113402	diff	60	diff	1	4612
12	18	f	PSYC4802-20134	0.98	Block	exp	141	20131014.113409	same	60	same	1	2919
12	18	f	PSYC4802-20134	0.98	Block	exp	142	20131014.113414	diff	20	diff	1	2029
12	18	f	PSYC4802-20134	0.98	Block	exp	143	20131014.113418	same	60	same	1	2139
12	18	f	PSYC4802-20134	0.98	Block	exp	144	20131014.113422	diff	20	diff	1	821
12	18	f	PSYC4802-20134	0.98	Block	exp	145	20131014.113425	diff	20	diff	1	938
12	18	f	PSYC4802-20134	0.98	Block	exp	146	20131014.113428	same	60	same	1	1718
12	18	f	PSYC4802-20134	0.98	Block	exp	147	20131014.113432	diff	20	diff	1	2643
12	18	f	PSYC4802-20134	0.98	Block	exp	148	20131014.113436	same	20	same	1	1618
12	18	f	PSYC4802-20134	0.98	Block	exp	149	20131014.113440	diff	100	diff	1	1776
12	18	f	PSYC4802-20134	0.98	Block	exp	150	20131014.113444	diff	60	diff	1	2028
12	18	f	PSYC4802-20134	0.98	Block	exp	151	20131014.113450	same	20	same	1	1525
12	18	f	PSYC4802-20134	0.98	Block	exp	152	20131014.113454	same	100	same	1	1326
12	18	f	PSYC4802-20134	0.98	Block	exp	153	20131014.113457	diff	100	diff	1	1366
12	18	f	PSYC4802-20134	0.98	Block	exp	154	20131014.113501	same	20	same	1	1589
12	18	f	PSYC4802-20134	0.98	Block	exp	155	20131014.113504	same	100	diff	0	1683
12	18	f	PSYC4802-20134	0.98	Block	exp	156	20131014.113508	same	100	diff	0	5210
12	18	f	PSYC4802-20134	0.98	Block	exp	157	20131014.113515	same	20	same	1	868
12	18	f	PSYC4802-20134	0.98	Block	exp	158	20131014.113518	same	100	same	1	1847
12	18	f	PSYC4802-20134	0.98	Block	exp	159	20131014.113522	same	60	diff	0	1677
12	18	f	PSYC4802-20134	0.98	Block	exp	160	20131014.113525	diff	100	diff	1	1431
12	18	f	PSYC4802-20134	0.98	Block	exp	161	20131014.113529	same	60	same	1	944
12	18	f	PSYC4802-20134	0.98	Block	exp	162	20131014.113532	diff	100	same	0	2181
12	18	f	PSYC4802-20134	0.98	Block	exp	163	20131014.113536	same	100	diff	0	1647
12	18	f	PSYC4802-20134	0.98	Block	exp	164	20131014.113540	diff	20	diff	1	4120
12	18	f	PSYC4802-20134	0.98	Block	exp	165	20131014.113546	same	20	same	1	1396
12	18	f	PSYC4802-20134	0.98	Block	exp	166	20131014.113549	diff	60	diff	1	1061
12	18	f	PSYC4802-20134	0.98	Block	exp	167	20131014.113552	diff	20	diff	1	2216
12	18	f	PSYC4802-20134	0.98	Block	exp	168	20131014.113557	diff	100	diff	1	1307
12	18	f	PSYC4802-20134	0.98	Block	exp	169	20131014.113600	same	60	diff	0	1009
12	18	f	PSYC4802-20134	0.98	Block	exp	170	20131014.113603	same	20	same	1	710
12	18	f	PSYC4802-20134	0.98	Block	exp	171	20131014.113606	same	100	same	1	979
12	18	f	PSYC4802-20134	0.98	Block	exp	172	20131014.113609	same	60	diff	0	1554
12	18	f	PSYC4802-20134	0.98	Block	exp	173	20131014.113612	diff	60	diff	1	1302
12	18	f	PSYC4802-20134	0.98	Block	exp	174	20131014.113615	diff	20	diff	1	2404
12	18	f	PSYC4802-20134	0.98	Block	exp	175	20131014.113620	diff	20	diff	1	745
12	18	f	PSYC4802-20134	0.98	Block	exp	176	20131014.113623	diff	20	diff	1	2169
12	18	f	PSYC4802-20134	0.98	Block	exp	177	20131014.113627	same	20	same	1	857
12	18	f	PSYC4802-20134	0.98	Block	exp	178	20131014.113630	diff	20	diff	1	1155
12	18	f	PSYC4802-20134	0.98	Block	exp	179	20131014.113633	diff	20	diff	1	1308
12	18	f	PSYC4802-20134	0.98	Block	exp	180	20131014.113636	diff	60	diff	1	3903
12	18	f	PSYC4802-20134	0.98	Block	exp	181	20131014.113642	diff	100	same	0	1225
12	18	f	PSYC4802-20134	0.98	Block	exp	182	20131014.113645	diff	60	same	0	2403
12	18	f	PSYC4802-20134	0.98	Block	exp	183	20131014.113650	diff	100	diff	1	2708
12	18	f	PSYC4802-20134	0.98	Block	exp	184	20131014.113654	diff	100	diff	1	1396
12	18	f	PSYC4802-20134	0.98	Block	exp	185	20131014.113658	diff	20	diff	1	3517
12	18	f	PSYC4802-20134	0.98	Block	exp	186	20131014.113703	diff	100	diff	1	1882
12	18	f	PSYC4802-20134	0.98	Block	exp	187	20131014.113707	diff	60	diff	1	1929
12	18	f	PSYC4802-20134	0.98	Block	exp	188	20131014.113711	same	100	same	1	2398
12	18	f	PSYC4802-20134	0.98	Block	exp	189	20131014.113715	diff	100	diff	1	939
12	18	f	PSYC4802-20134	0.98	Block	exp	190	20131014.113718	diff	100	same	0	4911
12	18	f	PSYC4802-20134	0.98	Block	exp	191	20131014.113725	same	100	diff	0	1777
12	18	f	PSYC4802-20134	0.98	Block	exp	192	20131014.113729	diff	60	diff	1	2456
12	18	f	PSYC4802-20134	0.98	Block	exp	193	20131014.113734	same	20	same	1	1149
12	18	f	PSYC4802-20134	0.98	Block	exp	194	20131014.113737	diff	20	diff	1	897
12	18	f	PSYC4802-20134	0.98	Block	exp	195	20131014.113740	same	60	same	1	1589
12	18	f	PSYC4802-20134	0.98	Block	exp	196	20131014.113743	diff	60	diff	1	945
12	18	f	PSYC4802-20134	0.98	Block	exp	197	20131014.113746	same	60	same	1	1220
12	18	f	PSYC4802-20134	0.98	Block	exp	198	20131014.113749	same	20	same	1	1700
12	18	f	PSYC4802-20134	0.98	Block	exp	199	20131014.113753	same	20	diff	0	1068
12	18	f	PSYC4802-20134	0.98	Block	exp	200	20131014.113756	same	20	same	1	1161
12	18	f	PSYC4802-20134	0.98	Block	exp	201	20131014.113803	same	60	same	1	880
12	18	f	PSYC4802-20134	0.98	Block	exp	202	20131014.113806	same	20	diff	0	856
12	18	f	PSYC4802-20134	0.98	Block	exp	203	20131014.113809	same	60	same	1	1776
12	18	f	PSYC4802-20134	0.98	Block	exp	204	20131014.113812	diff	100	diff	1	1524
12	18	f	PSYC4802-20134	0.98	Block	exp	205	20131014.113816	diff	60	diff	1	1941
12	18	f	PSYC4802-20134	0.98	Block	exp	206	20131014.113820	diff	20	diff	1	1255
12	18	f	PSYC4802-20134	0.98	Block	exp	207	20131014.113823	diff	100	diff	1	2544
12	18	f	PSYC4802-20134	0.98	Block	exp	208	20131014.113828	same	60	same	1	2051
12	18	f	PSYC4802-20134	0.98	Block	exp	209	20131014.113832	same	20	same	1	1073
12	18	f	PSYC4802-20134	0.98	Block	exp	210	20131014.113835	diff	100	diff	1	1167
12	18	f	PSYC4802-20134	0.98	Block	exp	211	20131014.113838	same	60	same	1	1219
12	18	f	PSYC4802-20134	0.98	Block	exp	212	20131014.113841	diff	20	diff	1	1694
12	18	f	PSYC4802-20134	0.98	Block	exp	213	20131014.113845	diff	100	diff	1	3768
12	18	f	PSYC4802-20134	0.98	Block	exp	214	20131014.113851	diff	100	same	0	1114
12	18	f	PSYC4802-20134	0.98	Block	exp	215	20131014.113854	diff	60	same	0	1865
12	18	f	PSYC4802-20134	0.98	Block	exp	216	20131014.113858	same	100	diff	0	1173
12	18	f	PSYC4802-20134	0.98	Block	exp	217	20131014.113901	same	20	same	1	1401
12	18	f	PSYC4802-20134	0.98	Block	exp	218	20131014.113904	diff	20	diff	1	1074
12	18	f	PSYC4802-20134	0.98	Block	exp	219	20131014.113907	diff	20	diff	1	1483
12	18	f	PSYC4802-20134	0.98	Block	exp	220	20131014.113911	diff	100	same	0	1249
12	18	f	PSYC4802-20134	0.98	Block	exp	221	20131014.113914	diff	60	diff	1	1536
12	18	f	PSYC4802-20134	0.98	Block	exp	222	20131014.113917	diff	100	same	0	1507
12	18	f	PSYC4802-20134	0.98	Block	exp	223	20131014.113921	same	20	same	1	1020
12	18	f	PSYC4802-20134	0.98	Block	exp	224	20131014.113924	same	20	same	1	1003
12	18	f	PSYC4802-20134	0.98	Block	exp	225	20131014.113927	same	100	diff	0	1179
12	18	f	PSYC4802-20134	0.98	Block	exp	226	20131014.113930	same	60	same	1	2333
12	18	f	PSYC4802-20134	0.98	Block	exp	227	20131014.113935	diff	100	diff	1	3119
12	18	f	PSYC4802-20134	0.98	Block	exp	228	20131014.113940	same	20	same	1	781
12	18	f	PSYC4802-20134	0.98	Block	exp	229	20131014.113942	same	20	same	1	1178
12	18	f	PSYC4802-20134	0.98	Block	exp	230	20131014.113946	same	20	same	1	1027
12	18	f	PSYC4802-20134	0.98	Block	exp	231	20131014.113949	diff	60	diff	1	1086
12	18	f	PSYC4802-20134	0.98	Block	exp	232	20131014.113952	same	100	same	1	2345
12	18	f	PSYC4802-20134	0.98	Block	exp	233	20131014.113956	same	60	diff	0	2421
12	18	f	PSYC4802-20134	0.98	Block	exp	234	20131014.114000	diff	60	diff	1	968
12	18	f	PSYC4802-20134	0.98	Block	exp	235	20131014.114003	same	60	same	1	1618
12	18	f	PSYC4802-20134	0.98	Block	exp	236	20131014.114007	same	20	same	1	1009
12	18	f	PSYC4802-20134	0.98	Block	exp	237	20131014.114010	diff	100	diff	1	2656
12	18	f	PSYC4802-20134	0.98	Block	exp	238	20131014.114015	same	60	same	1	1471
12	18	f	PSYC4802-20134	0.98	Block	exp	239	20131014.114018	diff	60	diff	1	1015
12	18	f	PSYC4802-20134	0.98	Block	exp	240	20131014.114021	same	100	diff	0	1817
12	18	f	PSYC4802-20134	0.98	Block	exp	241	20131014.114025	diff	100	diff	1	1173
12	18	f	PSYC4802-20134	0.98	Block	exp	242	20131014.114028	diff	20	diff	1	4056
12	18	f	PSYC4802-20134	0.98	Block	exp	243	20131014.114034	same	20	same	1	1225
12	18	f	PSYC4802-20134	0.98	Block	exp	244	20131014.114037	same	20	same	1	698
12	18	f	PSYC4802-20134	0.98	Block	exp	245	20131014.114040	same	60	same	1	1331
12	18	f	PSYC4802-20134	0.98	Block	exp	246	20131014.114044	same	100	diff	0	2779
12	18	f	PSYC4802-20134	0.98	Block	exp	247	20131014.114048	diff	100	diff	1	3124
12	18	f	PSYC4802-20134	0.98	Block	exp	248	20131014.114053	diff	20	diff	1	1805
12	18	f	PSYC4802-20134	0.98	Block	exp	249	20131014.114057	same	100	diff	0	3482
12	18	f	PSYC4802-20134	0.98	Block	exp	250	20131014.114103	same	60	same	1	1583
12	18	f	PSYC4802-20134	0.98	Block	exp	251	20131014.114109	same	100	same	1	1185
12	18	f	PSYC4802-20134	0.98	Block	exp	252	20131014.114112	diff	60	diff	1	3171
12	18	f	PSYC4802-20134	0.98	Block	exp	253	20131014.114117	same	100	same	1	3136
12	18	f	PSYC4802-20134	0.98	Block	exp	254	20131014.114123	diff	20	diff	1	997
12	18	f	PSYC4802-20134	0.98	Block	exp	255	20131014.114126	same	100	same	1	4126
12	18	f	PSYC4802-20134	0.98	Block	exp	256	20131014.114132	same	60	same	1	1150
12	18	f	PSYC4802-20134	0.98	Block	exp	257	20131014.114135	diff	100	diff	1	862
12	18	f	PSYC4802-20134	0.98	Block	exp	258	20131014.114138	diff	20	same	0	1448
12	18	f	PSYC4802-20134	0.98	Block	exp	259	20131014.114141	same	20	same	1	997
12	18	f	PSYC4802-20134	0.98	Block	exp	260	20131014.114144	same	20	same	1	1894
12	18	f	PSYC4802-20134	0.98	Block	exp	261	20131014.114148	same	100	diff	0	2169
12	18	f	PSYC4802-20134	0.98	Block	exp	262	20131014.114152	same	100	diff	0	3030
12	18	f	PSYC4802-20134	0.98	Block	exp	263	20131014.114157	same	60	same	1	1038
12	18	f	PSYC4802-20134	0.98	Block	exp	264	20131014.114200	same	60	diff	0	2386
12	18	f	PSYC4802-20134	0.98	Block	exp	265	20131014.114205	diff	100	diff	1	2169
12	18	f	PSYC4802-20134	0.98	Block	exp	266	20131014.114209	same	60	same	1	2221
12	18	f	PSYC4802-20134	0.98	Block	exp	267	20131014.114213	same	100	diff	0	2837
12	18	f	PSYC4802-20134	0.98	Block	exp	268	20131014.114218	diff	60	diff	1	1495
12	18	f	PSYC4802-20134	0.98	Block	exp	269	20131014.114221	same	20	same	1	669
12	18	f	PSYC4802-20134	0.98	Block	exp	270	20131014.114224	diff	60	same	0	2216
12	18	f	PSYC4802-20134	0.98	Block	exp	271	20131014.114228	same	100	diff	0	3288
12	18	f	PSYC4802-20134	0.98	Block	exp	272	20131014.114234	diff	20	diff	1	1272
12	18	f	PSYC4802-20134	0.98	Block	exp	273	20131014.114237	diff	100	same	0	2046
12	18	f	PSYC4802-20134	0.98	Block	exp	274	20131014.114241	same	100	same	1	2643
12	18	f	PSYC4802-20134	0.98	Block	exp	275	20131014.114246	diff	20	diff	1	3710
12	18	f	PSYC4802-20134	0.98	Block	exp	276	20131014.114251	same	20	same	1	1027
12	18	f	PSYC4802-20134	0.98	Block	exp	277	20131014.114254	same	20	same	1	862
12	18	f	PSYC4802-20134	0.98	Block	exp	278	20131014.114257	same	60	diff	0	2175
12	18	f	PSYC4802-20134	0.98	Block	exp	279	20131014.114301	diff	20	diff	1	1923
12	18	f	PSYC4802-20134	0.98	Block	exp	280	20131014.114305	same	60	same	1	1683
12	18	f	PSYC4802-20134	0.98	Block	exp	281	20131014.114309	diff	60	diff	1	1618
12	18	f	PSYC4802-20134	0.98	Block	exp	282	20131014.114313	same	20	same	1	1056
12	18	f	PSYC4802-20134	0.98	Block	exp	283	20131014.114316	same	60	same	1	1941
12	18	f	PSYC4802-20134	0.98	Block	exp	284	20131014.114320	diff	60	diff	1	1478
12	18	f	PSYC4802-20134	0.98	Block	exp	285	20131014.114323	same	100	diff	0	5421
12	18	f	PSYC4802-20134	0.98	Block	exp	286	20131014.114331	diff	20	same	0	856
12	18	f	PSYC4802-20134	0.98	Block	exp	287	20131014.114333	same	100	diff	0	2977
12	18	f	PSYC4802-20134	0.98	Block	exp	288	20131014.114338	same	60	diff	0	3921
12	18	f	PSYC4802-20134	0.98	Block	exp	289	20131014.114344	same	20	same	1	821
12	18	f	PSYC4802-20134	0.98	Block	exp	290	20131014.114347	same	60	same	1	1313
12	18	f	PSYC4802-20134	0.98	Block	exp	291	20131014.114350	diff	20	diff	1	1231
12	18	f	PSYC4802-20134	0.98	Block	exp	292	20131014.114354	diff	20	same	0	775
12	18	f	PSYC4802-20134	0.98	Block	exp	293	20131014.114357	diff	100	diff	1	927
12	18	f	PSYC4802-20134	0.98	Block	exp	294	20131014.114359	diff	60	same	0	1291
12	18	f	PSYC4802-20134	0.98	Block	exp	295	20131014.114403	diff	100	diff	1	980
12	18	f	PSYC4802-20134	0.98	Block	exp	296	20131014.114406	same	100	diff	0	2468
12	18	f	PSYC4802-20134	0.98	Block	exp	297	20131014.114410	same	100	diff	0	3065
12	18	f	PSYC4802-20134	0.98	Block	exp	298	20131014.114415	same	100	diff	0	4794
12	18	f	PSYC4802-20134	0.98	Block	exp	299	20131014.114422	diff	20	same	0	306
12	18	f	PSYC4802-20134	0.98	Block	exp	300	20131014.114424	diff	60	diff	1	939
