Subject	Age	Sex	Experiment	Version	Block	TrialType	Trial	Timestamp	SameDiff	Rotation	Response	Acc	RT
48	20	M	PSYC4802-20134	0.98	Block	practice	1	20131016.120824	diff	100	diff	1	26719
48	20	M	PSYC4802-20134	0.98	Block	practice	2	20131016.120852	diff	60	diff	1	10301
48	20	M	PSYC4802-20134	0.98	Block	practice	3	20131016.120904	same	100	same	1	2667
48	20	M	PSYC4802-20134	0.98	Block	practice	4	20131016.120909	same	60	same	1	3534
48	20	M	PSYC4802-20134	0.98	Block	practice	5	20131016.120915	same	60	same	1	5567
48	20	M	PSYC4802-20134	0.98	Block	practice	6	20131016.120922	diff	100	diff	1	1876
48	20	M	PSYC4802-20134	0.98	Block	practice	7	20131016.120926	diff	20	same	0	4700
48	20	M	PSYC4802-20134	0.98	Block	practice	8	20131016.120933	diff	100	diff	1	2503
48	20	M	PSYC4802-20134	0.98	Block	practice	9	20131016.120937	diff	100	diff	1	2075
48	20	M	PSYC4802-20134	0.98	Block	practice	10	20131016.120941	same	20	same	1	2585
48	20	M	PSYC4802-20134	0.98	Block	practice	11	20131016.120946	diff	60	diff	1	5287
48	20	M	PSYC4802-20134	0.98	Block	practice	12	20131016.120953	same	60	same	1	7876
48	20	M	PSYC4802-20134	0.98	Block	practice	13	20131016.121003	diff	100	diff	1	8690
48	20	M	PSYC4802-20134	0.98	Block	practice	14	20131016.121014	same	100	same	1	1319
48	20	M	PSYC4802-20134	0.98	Block	practice	15	20131016.121017	same	100	same	1	1395
48	20	M	PSYC4802-20134	0.98	Block	practice	16	20131016.121020	same	100	same	1	3827
48	20	M	PSYC4802-20134	0.98	Block	practice	17	20131016.121026	same	60	same	1	1255
48	20	M	PSYC4802-20134	0.98	Block	practice	18	20131016.121029	diff	60	diff	1	1759
48	20	M	PSYC4802-20134	0.98	Block	practice	19	20131016.121033	same	20	same	1	1131
48	20	M	PSYC4802-20134	0.98	Block	practice	20	20131016.121036	diff	20	diff	1	1648
48	20	M	PSYC4802-20134	0.98	Block	practice	21	20131016.121040	same	60	same	1	3265
48	20	M	PSYC4802-20134	0.98	Block	practice	22	20131016.121045	diff	20	diff	1	1055
48	20	M	PSYC4802-20134	0.98	Block	practice	23	20131016.121048	same	100	diff	0	2322
48	20	M	PSYC4802-20134	0.98	Block	practice	24	20131016.121052	same	20	same	1	4595
48	20	M	PSYC4802-20134	0.98	Block	practice	25	20131016.121059	same	20	same	1	1325
48	20	M	PSYC4802-20134	0.98	Block	practice	26	20131016.121102	diff	20	diff	1	1653
48	20	M	PSYC4802-20134	0.98	Block	practice	27	20131016.121106	diff	20	diff	1	1530
48	20	M	PSYC4802-20134	0.98	Block	practice	28	20131016.121110	same	20	same	1	933
48	20	M	PSYC4802-20134	0.98	Block	practice	29	20131016.121112	diff	60	diff	1	4536
48	20	M	PSYC4802-20134	0.98	Block	practice	30	20131016.121119	diff	60	same	0	2807
48	20	M	PSYC4802-20134	0.98	Block	exp	31	20131016.121124	same	100	same	1	6130
48	20	M	PSYC4802-20134	0.98	Block	exp	32	20131016.121132	same	60	same	1	1489
48	20	M	PSYC4802-20134	0.98	Block	exp	33	20131016.121135	diff	100	same	0	3721
48	20	M	PSYC4802-20134	0.98	Block	exp	34	20131016.121141	diff	60	same	0	2339
48	20	M	PSYC4802-20134	0.98	Block	exp	35	20131016.121145	same	60	same	1	1888
48	20	M	PSYC4802-20134	0.98	Block	exp	36	20131016.121149	diff	60	diff	1	2766
48	20	M	PSYC4802-20134	0.98	Block	exp	37	20131016.121154	diff	60	diff	1	2842
48	20	M	PSYC4802-20134	0.98	Block	exp	38	20131016.121159	same	100	same	1	2063
48	20	M	PSYC4802-20134	0.98	Block	exp	39	20131016.121203	same	20	same	1	4120
48	20	M	PSYC4802-20134	0.98	Block	exp	40	20131016.121209	same	20	same	1	1577
48	20	M	PSYC4802-20134	0.98	Block	exp	41	20131016.121213	diff	20	same	0	2849
48	20	M	PSYC4802-20134	0.98	Block	exp	42	20131016.121218	same	20	same	1	1226
48	20	M	PSYC4802-20134	0.98	Block	exp	43	20131016.121221	same	100	same	1	2246
48	20	M	PSYC4802-20134	0.98	Block	exp	44	20131016.121225	same	60	same	1	1952
48	20	M	PSYC4802-20134	0.98	Block	exp	45	20131016.121229	same	20	same	1	1220
48	20	M	PSYC4802-20134	0.98	Block	exp	46	20131016.121232	same	60	same	1	1261
48	20	M	PSYC4802-20134	0.98	Block	exp	47	20131016.121235	same	100	diff	0	1191
48	20	M	PSYC4802-20134	0.98	Block	exp	48	20131016.121239	same	100	same	1	3277
48	20	M	PSYC4802-20134	0.98	Block	exp	49	20131016.121244	diff	20	diff	1	1530
48	20	M	PSYC4802-20134	0.98	Block	exp	50	20131016.121247	same	20	same	1	1202
48	20	M	PSYC4802-20134	0.98	Block	exp	51	20131016.121328	same	20	same	1	2585
48	20	M	PSYC4802-20134	0.98	Block	exp	52	20131016.121333	same	20	same	1	1278
48	20	M	PSYC4802-20134	0.98	Block	exp	53	20131016.121336	same	20	same	1	816
48	20	M	PSYC4802-20134	0.98	Block	exp	54	20131016.121339	diff	100	diff	1	1536
48	20	M	PSYC4802-20134	0.98	Block	exp	55	20131016.121342	same	20	same	1	863
48	20	M	PSYC4802-20134	0.98	Block	exp	56	20131016.121345	same	100	same	1	1589
48	20	M	PSYC4802-20134	0.98	Block	exp	57	20131016.121349	diff	60	diff	1	2456
48	20	M	PSYC4802-20134	0.98	Block	exp	58	20131016.121353	same	60	same	1	985
48	20	M	PSYC4802-20134	0.98	Block	exp	59	20131016.121356	same	20	same	1	775
48	20	M	PSYC4802-20134	0.98	Block	exp	60	20131016.121359	diff	100	diff	1	1606
48	20	M	PSYC4802-20134	0.98	Block	exp	61	20131016.121402	same	100	diff	0	1395
48	20	M	PSYC4802-20134	0.98	Block	exp	62	20131016.121406	diff	60	diff	1	1947
48	20	M	PSYC4802-20134	0.98	Block	exp	63	20131016.121410	diff	100	diff	1	1706
48	20	M	PSYC4802-20134	0.98	Block	exp	64	20131016.121413	same	100	same	1	1108
48	20	M	PSYC4802-20134	0.98	Block	exp	65	20131016.121417	same	100	same	1	1302
48	20	M	PSYC4802-20134	0.98	Block	exp	66	20131016.121420	diff	20	diff	1	1202
48	20	M	PSYC4802-20134	0.98	Block	exp	67	20131016.121423	diff	60	diff	1	1014
48	20	M	PSYC4802-20134	0.98	Block	exp	68	20131016.121426	diff	60	same	0	2451
48	20	M	PSYC4802-20134	0.98	Block	exp	69	20131016.121430	same	60	same	1	1296
48	20	M	PSYC4802-20134	0.98	Block	exp	70	20131016.121434	diff	100	same	0	1443
48	20	M	PSYC4802-20134	0.98	Block	exp	71	20131016.121437	diff	60	diff	1	1712
48	20	M	PSYC4802-20134	0.98	Block	exp	72	20131016.121441	diff	20	diff	1	1044
48	20	M	PSYC4802-20134	0.98	Block	exp	73	20131016.121444	diff	20	same	0	1296
48	20	M	PSYC4802-20134	0.98	Block	exp	74	20131016.121447	diff	60	diff	1	2374
48	20	M	PSYC4802-20134	0.98	Block	exp	75	20131016.121451	same	20	same	1	821
48	20	M	PSYC4802-20134	0.98	Block	exp	76	20131016.121454	same	20	same	1	1008
48	20	M	PSYC4802-20134	0.98	Block	exp	77	20131016.121457	same	20	same	1	827
48	20	M	PSYC4802-20134	0.98	Block	exp	78	20131016.121500	diff	20	diff	1	2098
48	20	M	PSYC4802-20134	0.98	Block	exp	79	20131016.121504	diff	20	same	0	1612
48	20	M	PSYC4802-20134	0.98	Block	exp	80	20131016.121508	same	60	same	1	1337
48	20	M	PSYC4802-20134	0.98	Block	exp	81	20131016.121511	same	20	same	1	757
48	20	M	PSYC4802-20134	0.98	Block	exp	82	20131016.121514	diff	60	diff	1	2632
48	20	M	PSYC4802-20134	0.98	Block	exp	83	20131016.121518	diff	100	diff	1	1999
48	20	M	PSYC4802-20134	0.98	Block	exp	84	20131016.121522	diff	20	diff	1	2755
48	20	M	PSYC4802-20134	0.98	Block	exp	85	20131016.121527	diff	20	diff	1	2380
48	20	M	PSYC4802-20134	0.98	Block	exp	86	20131016.121531	same	100	same	1	2650
48	20	M	PSYC4802-20134	0.98	Block	exp	87	20131016.121536	diff	100	diff	1	2052
48	20	M	PSYC4802-20134	0.98	Block	exp	88	20131016.121540	diff	100	diff	1	3171
48	20	M	PSYC4802-20134	0.98	Block	exp	89	20131016.121545	diff	60	diff	1	2737
48	20	M	PSYC4802-20134	0.98	Block	exp	90	20131016.121550	diff	20	diff	1	1178
48	20	M	PSYC4802-20134	0.98	Block	exp	91	20131016.121553	diff	100	same	0	3282
48	20	M	PSYC4802-20134	0.98	Block	exp	92	20131016.121558	diff	20	diff	1	1636
48	20	M	PSYC4802-20134	0.98	Block	exp	93	20131016.121602	same	100	same	1	1249
48	20	M	PSYC4802-20134	0.98	Block	exp	94	20131016.121605	same	20	same	1	997
48	20	M	PSYC4802-20134	0.98	Block	exp	95	20131016.121608	same	60	same	1	1841
48	20	M	PSYC4802-20134	0.98	Block	exp	96	20131016.121612	same	60	same	1	3411
48	20	M	PSYC4802-20134	0.98	Block	exp	97	20131016.121617	diff	100	diff	1	2046
48	20	M	PSYC4802-20134	0.98	Block	exp	98	20131016.121621	diff	100	diff	1	3757
48	20	M	PSYC4802-20134	0.98	Block	exp	99	20131016.121627	diff	100	diff	1	3206
48	20	M	PSYC4802-20134	0.98	Block	exp	100	20131016.121632	diff	60	diff	1	1484
48	20	M	PSYC4802-20134	0.98	Block	exp	101	20131016.121813	diff	60	diff	1	1577
48	20	M	PSYC4802-20134	0.98	Block	exp	102	20131016.121817	same	60	same	1	780
48	20	M	PSYC4802-20134	0.98	Block	exp	103	20131016.121820	same	20	same	1	980
48	20	M	PSYC4802-20134	0.98	Block	exp	104	20131016.121822	diff	20	diff	1	1618
48	20	M	PSYC4802-20134	0.98	Block	exp	105	20131016.121826	diff	20	diff	1	1196
48	20	M	PSYC4802-20134	0.98	Block	exp	106	20131016.121829	diff	100	diff	1	1313
48	20	M	PSYC4802-20134	0.98	Block	exp	107	20131016.121832	diff	100	diff	1	1184
48	20	M	PSYC4802-20134	0.98	Block	exp	108	20131016.121836	same	60	same	1	781
48	20	M	PSYC4802-20134	0.98	Block	exp	109	20131016.121838	diff	20	diff	1	1372
48	20	M	PSYC4802-20134	0.98	Block	exp	110	20131016.121842	same	60	same	1	1144
48	20	M	PSYC4802-20134	0.98	Block	exp	111	20131016.121845	same	100	same	1	2755
48	20	M	PSYC4802-20134	0.98	Block	exp	112	20131016.121849	same	60	same	1	1149
48	20	M	PSYC4802-20134	0.98	Block	exp	113	20131016.121853	same	100	diff	0	1507
48	20	M	PSYC4802-20134	0.98	Block	exp	114	20131016.121856	diff	60	diff	1	1718
48	20	M	PSYC4802-20134	0.98	Block	exp	115	20131016.121900	same	60	same	1	3452
48	20	M	PSYC4802-20134	0.98	Block	exp	116	20131016.121905	diff	20	same	0	1741
48	20	M	PSYC4802-20134	0.98	Block	exp	117	20131016.121909	diff	20	diff	1	1361
48	20	M	PSYC4802-20134	0.98	Block	exp	118	20131016.121912	diff	60	diff	1	3675
48	20	M	PSYC4802-20134	0.98	Block	exp	119	20131016.121918	diff	100	diff	1	1536
48	20	M	PSYC4802-20134	0.98	Block	exp	120	20131016.121921	same	100	diff	0	3815
48	20	M	PSYC4802-20134	0.98	Block	exp	121	20131016.121927	same	20	same	1	1419
48	20	M	PSYC4802-20134	0.98	Block	exp	122	20131016.121930	same	20	same	1	904
48	20	M	PSYC4802-20134	0.98	Block	exp	123	20131016.121933	same	100	same	1	2989
48	20	M	PSYC4802-20134	0.98	Block	exp	124	20131016.121938	diff	60	diff	1	1677
48	20	M	PSYC4802-20134	0.98	Block	exp	125	20131016.121942	diff	60	diff	1	1326
48	20	M	PSYC4802-20134	0.98	Block	exp	126	20131016.121945	same	60	diff	0	1414
48	20	M	PSYC4802-20134	0.98	Block	exp	127	20131016.121948	same	100	same	1	845
48	20	M	PSYC4802-20134	0.98	Block	exp	128	20131016.121951	same	60	same	1	2532
48	20	M	PSYC4802-20134	0.98	Block	exp	129	20131016.121956	same	60	same	1	1091
48	20	M	PSYC4802-20134	0.98	Block	exp	130	20131016.121959	same	60	diff	0	927
48	20	M	PSYC4802-20134	0.98	Block	exp	131	20131016.122002	same	100	diff	0	2849
48	20	M	PSYC4802-20134	0.98	Block	exp	132	20131016.122006	diff	100	diff	1	2216
48	20	M	PSYC4802-20134	0.98	Block	exp	133	20131016.122010	diff	20	diff	1	979
48	20	M	PSYC4802-20134	0.98	Block	exp	134	20131016.122013	same	100	same	1	3511
48	20	M	PSYC4802-20134	0.98	Block	exp	135	20131016.122019	diff	100	diff	1	1800
48	20	M	PSYC4802-20134	0.98	Block	exp	136	20131016.122023	diff	20	same	0	1267
48	20	M	PSYC4802-20134	0.98	Block	exp	137	20131016.122026	diff	100	same	0	1354
48	20	M	PSYC4802-20134	0.98	Block	exp	138	20131016.122029	diff	100	diff	1	1425
48	20	M	PSYC4802-20134	0.98	Block	exp	139	20131016.122033	same	100	same	1	1279
48	20	M	PSYC4802-20134	0.98	Block	exp	140	20131016.122036	diff	20	same	0	3048
48	20	M	PSYC4802-20134	0.98	Block	exp	141	20131016.122041	same	100	same	1	1718
48	20	M	PSYC4802-20134	0.98	Block	exp	142	20131016.122044	diff	60	diff	1	1794
48	20	M	PSYC4802-20134	0.98	Block	exp	143	20131016.122048	diff	100	diff	1	1882
48	20	M	PSYC4802-20134	0.98	Block	exp	144	20131016.122052	same	20	same	1	944
48	20	M	PSYC4802-20134	0.98	Block	exp	145	20131016.122055	same	20	same	1	857
48	20	M	PSYC4802-20134	0.98	Block	exp	146	20131016.122058	same	60	diff	0	1372
48	20	M	PSYC4802-20134	0.98	Block	exp	147	20131016.122101	same	20	same	1	821
48	20	M	PSYC4802-20134	0.98	Block	exp	148	20131016.122104	diff	100	diff	1	1061
48	20	M	PSYC4802-20134	0.98	Block	exp	149	20131016.122107	diff	20	diff	1	1929
48	20	M	PSYC4802-20134	0.98	Block	exp	150	20131016.122111	same	20	same	1	728
48	20	M	PSYC4802-20134	0.98	Block	exp	151	20131016.122155	same	20	same	1	787
48	20	M	PSYC4802-20134	0.98	Block	exp	152	20131016.122157	diff	100	diff	1	2221
48	20	M	PSYC4802-20134	0.98	Block	exp	153	20131016.122202	diff	100	diff	1	1729
48	20	M	PSYC4802-20134	0.98	Block	exp	154	20131016.122205	diff	60	diff	1	1794
48	20	M	PSYC4802-20134	0.98	Block	exp	155	20131016.122209	same	100	diff	0	2251
48	20	M	PSYC4802-20134	0.98	Block	exp	156	20131016.122213	same	20	same	1	704
48	20	M	PSYC4802-20134	0.98	Block	exp	157	20131016.122216	diff	100	diff	1	2298
48	20	M	PSYC4802-20134	0.98	Block	exp	158	20131016.122220	diff	60	diff	1	1572
48	20	M	PSYC4802-20134	0.98	Block	exp	159	20131016.122224	same	60	same	1	1056
48	20	M	PSYC4802-20134	0.98	Block	exp	160	20131016.122227	same	60	same	1	1155
48	20	M	PSYC4802-20134	0.98	Block	exp	161	20131016.122230	same	100	same	1	3458
48	20	M	PSYC4802-20134	0.98	Block	exp	162	20131016.122235	same	60	same	1	1378
48	20	M	PSYC4802-20134	0.98	Block	exp	163	20131016.122238	diff	100	diff	1	3370
48	20	M	PSYC4802-20134	0.98	Block	exp	164	20131016.122244	diff	60	diff	1	2128
48	20	M	PSYC4802-20134	0.98	Block	exp	165	20131016.122248	diff	60	diff	1	3863
48	20	M	PSYC4802-20134	0.98	Block	exp	166	20131016.122254	diff	20	diff	1	1337
48	20	M	PSYC4802-20134	0.98	Block	exp	167	20131016.122257	diff	60	diff	1	1700
48	20	M	PSYC4802-20134	0.98	Block	exp	168	20131016.122301	diff	60	diff	1	2005
48	20	M	PSYC4802-20134	0.98	Block	exp	169	20131016.122304	same	60	same	1	1735
48	20	M	PSYC4802-20134	0.98	Block	exp	170	20131016.122308	same	20	same	1	745
48	20	M	PSYC4802-20134	0.98	Block	exp	171	20131016.122311	same	20	same	1	798
48	20	M	PSYC4802-20134	0.98	Block	exp	172	20131016.122314	same	60	same	1	1050
48	20	M	PSYC4802-20134	0.98	Block	exp	173	20131016.122317	diff	100	diff	1	2374
48	20	M	PSYC4802-20134	0.98	Block	exp	174	20131016.122321	same	60	same	1	1607
48	20	M	PSYC4802-20134	0.98	Block	exp	175	20131016.122325	same	20	same	1	658
48	20	M	PSYC4802-20134	0.98	Block	exp	176	20131016.122327	same	20	same	1	616
48	20	M	PSYC4802-20134	0.98	Block	exp	177	20131016.122330	diff	60	diff	1	2685
48	20	M	PSYC4802-20134	0.98	Block	exp	178	20131016.122334	same	60	same	1	1407
48	20	M	PSYC4802-20134	0.98	Block	exp	179	20131016.122338	diff	100	diff	1	3376
48	20	M	PSYC4802-20134	0.98	Block	exp	180	20131016.122343	diff	20	diff	1	1279
48	20	M	PSYC4802-20134	0.98	Block	exp	181	20131016.122346	same	100	diff	0	2245
48	20	M	PSYC4802-20134	0.98	Block	exp	182	20131016.122350	same	100	same	1	1149
48	20	M	PSYC4802-20134	0.98	Block	exp	183	20131016.122354	diff	20	diff	1	1237
48	20	M	PSYC4802-20134	0.98	Block	exp	184	20131016.122357	same	60	same	1	1009
48	20	M	PSYC4802-20134	0.98	Block	exp	185	20131016.122400	same	60	same	1	1513
48	20	M	PSYC4802-20134	0.98	Block	exp	186	20131016.122403	same	100	diff	0	2597
48	20	M	PSYC4802-20134	0.98	Block	exp	187	20131016.122408	same	100	same	1	1237
48	20	M	PSYC4802-20134	0.98	Block	exp	188	20131016.122411	diff	100	diff	1	1682
48	20	M	PSYC4802-20134	0.98	Block	exp	189	20131016.122415	same	60	same	1	728
48	20	M	PSYC4802-20134	0.98	Block	exp	190	20131016.122417	diff	100	diff	1	1150
48	20	M	PSYC4802-20134	0.98	Block	exp	191	20131016.122420	diff	60	diff	1	1326
48	20	M	PSYC4802-20134	0.98	Block	exp	192	20131016.122424	diff	100	diff	1	1806
48	20	M	PSYC4802-20134	0.98	Block	exp	193	20131016.122427	same	20	same	1	1102
48	20	M	PSYC4802-20134	0.98	Block	exp	194	20131016.122430	same	100	diff	0	2731
48	20	M	PSYC4802-20134	0.98	Block	exp	195	20131016.122435	diff	100	diff	1	2216
48	20	M	PSYC4802-20134	0.98	Block	exp	196	20131016.122439	same	20	same	1	1940
48	20	M	PSYC4802-20134	0.98	Block	exp	197	20131016.122443	same	60	same	1	1302
48	20	M	PSYC4802-20134	0.98	Block	exp	198	20131016.122446	same	100	diff	0	938
48	20	M	PSYC4802-20134	0.98	Block	exp	199	20131016.122449	same	100	same	1	1114
48	20	M	PSYC4802-20134	0.98	Block	exp	200	20131016.122452	diff	100	diff	1	1418
48	20	M	PSYC4802-20134	0.98	Block	exp	201	20131016.122549	diff	100	diff	1	1548
48	20	M	PSYC4802-20134	0.98	Block	exp	202	20131016.122552	diff	100	diff	1	3686
48	20	M	PSYC4802-20134	0.98	Block	exp	203	20131016.122558	same	100	same	1	3101
48	20	M	PSYC4802-20134	0.98	Block	exp	204	20131016.122603	same	60	same	1	745
48	20	M	PSYC4802-20134	0.98	Block	exp	205	20131016.122606	diff	60	diff	1	2069
48	20	M	PSYC4802-20134	0.98	Block	exp	206	20131016.122610	same	20	same	1	956
48	20	M	PSYC4802-20134	0.98	Block	exp	207	20131016.122613	same	60	diff	0	2233
48	20	M	PSYC4802-20134	0.98	Block	exp	208	20131016.122617	diff	20	diff	1	1670
48	20	M	PSYC4802-20134	0.98	Block	exp	209	20131016.122621	same	60	same	1	1618
48	20	M	PSYC4802-20134	0.98	Block	exp	210	20131016.122624	same	100	diff	0	1976
48	20	M	PSYC4802-20134	0.98	Block	exp	211	20131016.122628	diff	20	diff	1	1296
48	20	M	PSYC4802-20134	0.98	Block	exp	212	20131016.122631	same	20	same	1	980
48	20	M	PSYC4802-20134	0.98	Block	exp	213	20131016.122634	same	100	same	1	1014
48	20	M	PSYC4802-20134	0.98	Block	exp	214	20131016.122637	diff	60	diff	1	1068
48	20	M	PSYC4802-20134	0.98	Block	exp	215	20131016.122640	same	100	diff	0	1929
48	20	M	PSYC4802-20134	0.98	Block	exp	216	20131016.122644	same	100	same	1	921
48	20	M	PSYC4802-20134	0.98	Block	exp	217	20131016.122647	same	60	same	1	1331
48	20	M	PSYC4802-20134	0.98	Block	exp	218	20131016.122650	diff	60	diff	1	1114
48	20	M	PSYC4802-20134	0.98	Block	exp	219	20131016.122653	diff	100	diff	1	1436
48	20	M	PSYC4802-20134	0.98	Block	exp	220	20131016.122657	diff	20	diff	1	915
48	20	M	PSYC4802-20134	0.98	Block	exp	221	20131016.122700	diff	60	diff	1	2532
48	20	M	PSYC4802-20134	0.98	Block	exp	222	20131016.122704	diff	60	diff	1	1032
48	20	M	PSYC4802-20134	0.98	Block	exp	223	20131016.122707	diff	20	diff	1	1021
48	20	M	PSYC4802-20134	0.98	Block	exp	224	20131016.122710	same	20	same	1	763
48	20	M	PSYC4802-20134	0.98	Block	exp	225	20131016.122713	diff	60	diff	1	1659
48	20	M	PSYC4802-20134	0.98	Block	exp	226	20131016.122716	same	60	same	1	1238
48	20	M	PSYC4802-20134	0.98	Block	exp	227	20131016.122720	diff	100	diff	1	1495
48	20	M	PSYC4802-20134	0.98	Block	exp	228	20131016.122723	same	60	same	1	991
48	20	M	PSYC4802-20134	0.98	Block	exp	229	20131016.122726	diff	100	diff	1	1214
48	20	M	PSYC4802-20134	0.98	Block	exp	230	20131016.122729	diff	20	diff	1	1020
48	20	M	PSYC4802-20134	0.98	Block	exp	231	20131016.122732	same	60	same	1	1624
48	20	M	PSYC4802-20134	0.98	Block	exp	232	20131016.122736	diff	20	diff	1	710
48	20	M	PSYC4802-20134	0.98	Block	exp	233	20131016.122738	same	100	diff	0	1905
48	20	M	PSYC4802-20134	0.98	Block	exp	234	20131016.122742	diff	60	diff	1	1331
48	20	M	PSYC4802-20134	0.98	Block	exp	235	20131016.122746	diff	20	diff	1	1319
48	20	M	PSYC4802-20134	0.98	Block	exp	236	20131016.122749	diff	20	diff	1	1630
48	20	M	PSYC4802-20134	0.98	Block	exp	237	20131016.122752	same	60	diff	0	2832
48	20	M	PSYC4802-20134	0.98	Block	exp	238	20131016.122757	diff	60	diff	1	1384
48	20	M	PSYC4802-20134	0.98	Block	exp	239	20131016.122801	diff	100	diff	1	1888
48	20	M	PSYC4802-20134	0.98	Block	exp	240	20131016.122804	same	100	diff	0	1759
48	20	M	PSYC4802-20134	0.98	Block	exp	241	20131016.122808	same	60	same	1	757
48	20	M	PSYC4802-20134	0.98	Block	exp	242	20131016.122811	diff	60	diff	1	1390
48	20	M	PSYC4802-20134	0.98	Block	exp	243	20131016.122814	diff	100	diff	1	1062
48	20	M	PSYC4802-20134	0.98	Block	exp	244	20131016.122817	same	20	same	1	927
48	20	M	PSYC4802-20134	0.98	Block	exp	245	20131016.122820	same	60	diff	0	1343
48	20	M	PSYC4802-20134	0.98	Block	exp	246	20131016.122823	same	20	same	1	640
48	20	M	PSYC4802-20134	0.98	Block	exp	247	20131016.122826	same	100	diff	0	1027
48	20	M	PSYC4802-20134	0.98	Block	exp	248	20131016.122829	same	20	same	1	1115
48	20	M	PSYC4802-20134	0.98	Block	exp	249	20131016.122832	same	100	same	1	1542
48	20	M	PSYC4802-20134	0.98	Block	exp	250	20131016.122836	diff	100	diff	1	2169
48	20	M	PSYC4802-20134	0.98	Block	exp	251	20131016.122902	same	20	same	1	710
48	20	M	PSYC4802-20134	0.98	Block	exp	252	20131016.122904	diff	20	diff	1	1477
48	20	M	PSYC4802-20134	0.98	Block	exp	253	20131016.122908	diff	20	diff	1	1401
48	20	M	PSYC4802-20134	0.98	Block	exp	254	20131016.122911	same	100	same	1	1278
48	20	M	PSYC4802-20134	0.98	Block	exp	255	20131016.122914	diff	20	diff	1	927
48	20	M	PSYC4802-20134	0.98	Block	exp	256	20131016.122917	diff	20	diff	1	1325
48	20	M	PSYC4802-20134	0.98	Block	exp	257	20131016.122921	diff	100	diff	1	1946
48	20	M	PSYC4802-20134	0.98	Block	exp	258	20131016.122924	diff	60	diff	1	904
48	20	M	PSYC4802-20134	0.98	Block	exp	259	20131016.122927	diff	60	diff	1	1302
48	20	M	PSYC4802-20134	0.98	Block	exp	260	20131016.122931	diff	20	diff	1	798
48	20	M	PSYC4802-20134	0.98	Block	exp	261	20131016.122933	same	20	same	1	780
48	20	M	PSYC4802-20134	0.98	Block	exp	262	20131016.122936	diff	100	diff	1	1238
48	20	M	PSYC4802-20134	0.98	Block	exp	263	20131016.122939	diff	60	diff	1	2286
48	20	M	PSYC4802-20134	0.98	Block	exp	264	20131016.122944	same	60	same	1	1027
48	20	M	PSYC4802-20134	0.98	Block	exp	265	20131016.122947	same	20	same	1	727
48	20	M	PSYC4802-20134	0.98	Block	exp	266	20131016.122949	diff	100	diff	1	1478
48	20	M	PSYC4802-20134	0.98	Block	exp	267	20131016.122953	diff	20	diff	1	915
48	20	M	PSYC4802-20134	0.98	Block	exp	268	20131016.122956	diff	60	diff	1	962
48	20	M	PSYC4802-20134	0.98	Block	exp	269	20131016.122959	same	100	same	1	1167
48	20	M	PSYC4802-20134	0.98	Block	exp	270	20131016.123002	diff	20	diff	1	769
48	20	M	PSYC4802-20134	0.98	Block	exp	271	20131016.123005	diff	20	diff	1	1840
48	20	M	PSYC4802-20134	0.98	Block	exp	272	20131016.123008	same	100	same	1	1343
48	20	M	PSYC4802-20134	0.98	Block	exp	273	20131016.123012	diff	100	diff	1	1530
48	20	M	PSYC4802-20134	0.98	Block	exp	274	20131016.123015	same	20	same	1	663
48	20	M	PSYC4802-20134	0.98	Block	exp	275	20131016.123018	same	20	same	1	1032
48	20	M	PSYC4802-20134	0.98	Block	exp	276	20131016.123021	diff	20	diff	1	733
48	20	M	PSYC4802-20134	0.98	Block	exp	277	20131016.123023	diff	60	diff	1	1689
48	20	M	PSYC4802-20134	0.98	Block	exp	278	20131016.123027	same	60	diff	0	986
48	20	M	PSYC4802-20134	0.98	Block	exp	279	20131016.123030	same	20	same	1	751
48	20	M	PSYC4802-20134	0.98	Block	exp	280	20131016.123033	diff	20	diff	1	1424
48	20	M	PSYC4802-20134	0.98	Block	exp	281	20131016.123036	diff	20	diff	1	874
48	20	M	PSYC4802-20134	0.98	Block	exp	282	20131016.123039	same	20	same	1	646
48	20	M	PSYC4802-20134	0.98	Block	exp	283	20131016.123042	same	60	same	1	880
48	20	M	PSYC4802-20134	0.98	Block	exp	284	20131016.123044	diff	20	diff	1	1383
48	20	M	PSYC4802-20134	0.98	Block	exp	285	20131016.123048	diff	60	diff	1	1343
48	20	M	PSYC4802-20134	0.98	Block	exp	286	20131016.123051	same	20	same	1	593
48	20	M	PSYC4802-20134	0.98	Block	exp	287	20131016.123054	diff	100	diff	1	1097
48	20	M	PSYC4802-20134	0.98	Block	exp	288	20131016.123057	diff	60	diff	1	891
48	20	M	PSYC4802-20134	0.98	Block	exp	289	20131016.123100	same	100	same	1	974
48	20	M	PSYC4802-20134	0.98	Block	exp	290	20131016.123103	diff	60	diff	1	1044
48	20	M	PSYC4802-20134	0.98	Block	exp	291	20131016.123106	diff	60	diff	1	1062
48	20	M	PSYC4802-20134	0.98	Block	exp	292	20131016.123109	same	100	same	1	786
48	20	M	PSYC4802-20134	0.98	Block	exp	293	20131016.123111	diff	20	diff	1	1319
48	20	M	PSYC4802-20134	0.98	Block	exp	294	20131016.123115	same	60	same	1	1185
48	20	M	PSYC4802-20134	0.98	Block	exp	295	20131016.123118	same	100	diff	0	822
48	20	M	PSYC4802-20134	0.98	Block	exp	296	20131016.123121	same	20	same	1	985
48	20	M	PSYC4802-20134	0.98	Block	exp	297	20131016.123124	diff	20	diff	1	1143
48	20	M	PSYC4802-20134	0.98	Block	exp	298	20131016.123127	diff	60	diff	1	2632
48	20	M	PSYC4802-20134	0.98	Block	exp	299	20131016.123131	same	60	same	1	681
48	20	M	PSYC4802-20134	0.98	Block	exp	300	20131016.123134	same	100	same	1	1185
