Subject	Age	Sex	Experiment	Version	Block	TrialType	Trial	Timestamp	SameDiff	Rotation	Response	Acc	RT
116	18	f	PSYC4802-20134	0.98	Block	practice	1	20131114.114421	diff	20	diff	1	880
116	18	f	PSYC4802-20134	0.98	Block	practice	2	20131114.114424	same	60	same	1	915
116	18	f	PSYC4802-20134	0.98	Block	practice	3	20131114.114427	diff	20	same	0	863
116	18	f	PSYC4802-20134	0.98	Block	practice	4	20131114.114430	same	100	same	1	1301
116	18	f	PSYC4802-20134	0.98	Block	practice	5	20131114.114433	same	20	diff	0	710
116	18	f	PSYC4802-20134	0.98	Block	practice	6	20131114.114436	diff	100	same	0	669
116	18	f	PSYC4802-20134	0.98	Block	practice	7	20131114.114439	diff	20	diff	1	610
116	18	f	PSYC4802-20134	0.98	Block	practice	8	20131114.114441	same	60	same	1	482
116	18	f	PSYC4802-20134	0.98	Block	practice	9	20131114.114444	same	20	same	1	593
116	18	f	PSYC4802-20134	0.98	Block	practice	10	20131114.114447	same	60	diff	0	634
116	18	f	PSYC4802-20134	0.98	Block	practice	11	20131114.114449	diff	60	same	0	810
116	18	f	PSYC4802-20134	0.98	Block	practice	12	20131114.114452	diff	100	diff	1	781
116	18	f	PSYC4802-20134	0.98	Block	practice	13	20131114.114455	diff	60	diff	1	716
116	18	f	PSYC4802-20134	0.98	Block	practice	14	20131114.114457	same	100	same	1	610
116	18	f	PSYC4802-20134	0.98	Block	practice	15	20131114.114500	same	60	same	1	558
116	18	f	PSYC4802-20134	0.98	Block	practice	16	20131114.114503	diff	100	same	0	774
116	18	f	PSYC4802-20134	0.98	Block	practice	17	20131114.114505	diff	100	same	0	845
116	18	f	PSYC4802-20134	0.98	Block	practice	18	20131114.114508	diff	60	diff	1	851
116	18	f	PSYC4802-20134	0.98	Block	practice	19	20131114.114511	same	20	diff	0	587
116	18	f	PSYC4802-20134	0.98	Block	practice	20	20131114.114513	same	100	diff	0	722
116	18	f	PSYC4802-20134	0.98	Block	practice	21	20131114.114516	diff	60	same	0	1600
116	18	f	PSYC4802-20134	0.98	Block	practice	22	20131114.114520	same	100	same	1	792
116	18	f	PSYC4802-20134	0.98	Block	practice	23	20131114.114523	same	20	same	1	798
116	18	f	PSYC4802-20134	0.98	Block	practice	24	20131114.114525	same	60	same	1	699
116	18	f	PSYC4802-20134	0.98	Block	practice	25	20131114.114528	same	20	same	1	658
116	18	f	PSYC4802-20134	0.98	Block	practice	26	20131114.114531	same	100	same	1	1770
116	18	f	PSYC4802-20134	0.98	Block	practice	27	20131114.114535	diff	60	diff	1	1150
116	18	f	PSYC4802-20134	0.98	Block	practice	28	20131114.114538	diff	20	diff	1	1038
116	18	f	PSYC4802-20134	0.98	Block	practice	29	20131114.114541	diff	20	diff	1	1115
116	18	f	PSYC4802-20134	0.98	Block	practice	30	20131114.114544	diff	100	diff	1	1062
116	18	f	PSYC4802-20134	0.98	Block	exp	31	20131114.114547	same	60	same	1	903
116	18	f	PSYC4802-20134	0.98	Block	exp	32	20131114.114550	same	20	same	1	646
116	18	f	PSYC4802-20134	0.98	Block	exp	33	20131114.114553	same	60	same	1	880
116	18	f	PSYC4802-20134	0.98	Block	exp	34	20131114.114556	same	60	same	1	570
116	18	f	PSYC4802-20134	0.98	Block	exp	35	20131114.114558	diff	20	same	0	816
116	18	f	PSYC4802-20134	0.98	Block	exp	36	20131114.114601	same	20	same	1	1284
116	18	f	PSYC4802-20134	0.98	Block	exp	37	20131114.114604	same	20	same	1	546
116	18	f	PSYC4802-20134	0.98	Block	exp	38	20131114.114607	same	20	same	1	827
116	18	f	PSYC4802-20134	0.98	Block	exp	39	20131114.114610	same	60	same	1	1125
116	18	f	PSYC4802-20134	0.98	Block	exp	40	20131114.114613	diff	60	diff	1	775
116	18	f	PSYC4802-20134	0.98	Block	exp	41	20131114.114616	diff	100	same	0	634
116	18	f	PSYC4802-20134	0.98	Block	exp	42	20131114.114618	diff	20	diff	1	833
116	18	f	PSYC4802-20134	0.98	Block	exp	43	20131114.114621	same	20	same	1	617
116	18	f	PSYC4802-20134	0.98	Block	exp	44	20131114.114624	same	60	same	1	469
116	18	f	PSYC4802-20134	0.98	Block	exp	45	20131114.114626	diff	60	diff	1	494
116	18	f	PSYC4802-20134	0.98	Block	exp	46	20131114.114629	same	100	same	1	563
116	18	f	PSYC4802-20134	0.98	Block	exp	47	20131114.114631	diff	20	diff	1	611
116	18	f	PSYC4802-20134	0.98	Block	exp	48	20131114.114634	diff	20	diff	1	569
116	18	f	PSYC4802-20134	0.98	Block	exp	49	20131114.114636	diff	20	same	0	535
116	18	f	PSYC4802-20134	0.98	Block	exp	50	20131114.114639	same	100	same	1	664
116	18	f	PSYC4802-20134	0.98	Block	exp	51	20131114.114649	diff	100	same	0	681
116	18	f	PSYC4802-20134	0.98	Block	exp	52	20131114.114651	same	100	diff	0	898
116	18	f	PSYC4802-20134	0.98	Block	exp	53	20131114.114654	diff	20	same	0	945
116	18	f	PSYC4802-20134	0.98	Block	exp	54	20131114.114657	diff	20	diff	1	1776
116	18	f	PSYC4802-20134	0.98	Block	exp	55	20131114.114701	same	20	diff	0	710
116	18	f	PSYC4802-20134	0.98	Block	exp	56	20131114.114704	same	60	same	1	1161
116	18	f	PSYC4802-20134	0.98	Block	exp	57	20131114.114707	same	20	same	1	540
116	18	f	PSYC4802-20134	0.98	Block	exp	58	20131114.114710	diff	100	diff	1	1020
116	18	f	PSYC4802-20134	0.98	Block	exp	59	20131114.114713	same	100	same	1	1044
116	18	f	PSYC4802-20134	0.98	Block	exp	60	20131114.114716	same	20	same	1	563
116	18	f	PSYC4802-20134	0.98	Block	exp	61	20131114.114718	diff	20	diff	1	669
116	18	f	PSYC4802-20134	0.98	Block	exp	62	20131114.114721	diff	20	diff	1	686
116	18	f	PSYC4802-20134	0.98	Block	exp	63	20131114.114724	same	60	same	1	645
116	18	f	PSYC4802-20134	0.98	Block	exp	64	20131114.114726	same	100	diff	0	1020
116	18	f	PSYC4802-20134	0.98	Block	exp	65	20131114.114729	diff	60	diff	1	1548
116	18	f	PSYC4802-20134	0.98	Block	exp	66	20131114.114733	diff	20	same	0	851
116	18	f	PSYC4802-20134	0.98	Block	exp	67	20131114.114736	diff	60	diff	1	2691
116	18	f	PSYC4802-20134	0.98	Block	exp	68	20131114.114741	diff	60	diff	1	1906
116	18	f	PSYC4802-20134	0.98	Block	exp	69	20131114.114744	diff	60	same	0	927
116	18	f	PSYC4802-20134	0.98	Block	exp	70	20131114.114747	diff	20	diff	1	2896
116	18	f	PSYC4802-20134	0.98	Block	exp	71	20131114.114752	diff	20	diff	1	1477
116	18	f	PSYC4802-20134	0.98	Block	exp	72	20131114.114756	same	60	same	1	1302
116	18	f	PSYC4802-20134	0.98	Block	exp	73	20131114.114759	diff	60	diff	1	1905
116	18	f	PSYC4802-20134	0.98	Block	exp	74	20131114.114803	same	20	same	1	880
116	18	f	PSYC4802-20134	0.98	Block	exp	75	20131114.114806	same	60	same	1	1490
116	18	f	PSYC4802-20134	0.98	Block	exp	76	20131114.114809	same	20	same	1	663
116	18	f	PSYC4802-20134	0.98	Block	exp	77	20131114.114812	same	20	same	1	646
116	18	f	PSYC4802-20134	0.98	Block	exp	78	20131114.114815	same	100	same	1	1009
116	18	f	PSYC4802-20134	0.98	Block	exp	79	20131114.114818	same	20	same	1	528
116	18	f	PSYC4802-20134	0.98	Block	exp	80	20131114.114820	diff	100	diff	1	646
116	18	f	PSYC4802-20134	0.98	Block	exp	81	20131114.114823	diff	20	diff	1	2925
116	18	f	PSYC4802-20134	0.98	Block	exp	82	20131114.114828	same	100	same	1	710
116	18	f	PSYC4802-20134	0.98	Block	exp	83	20131114.114831	same	100	same	1	793
116	18	f	PSYC4802-20134	0.98	Block	exp	84	20131114.114833	diff	20	same	0	851
116	18	f	PSYC4802-20134	0.98	Block	exp	85	20131114.114836	diff	60	diff	1	2860
116	18	f	PSYC4802-20134	0.98	Block	exp	86	20131114.114841	same	60	diff	0	904
116	18	f	PSYC4802-20134	0.98	Block	exp	87	20131114.114844	diff	20	same	0	634
116	18	f	PSYC4802-20134	0.98	Block	exp	88	20131114.114847	diff	60	diff	1	2556
116	18	f	PSYC4802-20134	0.98	Block	exp	89	20131114.114851	diff	60	diff	1	1038
116	18	f	PSYC4802-20134	0.98	Block	exp	90	20131114.114854	diff	60	diff	1	1091
116	18	f	PSYC4802-20134	0.98	Block	exp	91	20131114.114857	same	100	same	1	944
116	18	f	PSYC4802-20134	0.98	Block	exp	92	20131114.114900	diff	100	diff	1	1542
116	18	f	PSYC4802-20134	0.98	Block	exp	93	20131114.114904	diff	60	same	0	1396
116	18	f	PSYC4802-20134	0.98	Block	exp	94	20131114.114907	same	60	same	1	945
116	18	f	PSYC4802-20134	0.98	Block	exp	95	20131114.114910	same	100	same	1	775
116	18	f	PSYC4802-20134	0.98	Block	exp	96	20131114.114913	diff	60	diff	1	833
116	18	f	PSYC4802-20134	0.98	Block	exp	97	20131114.114916	diff	60	diff	1	1191
116	18	f	PSYC4802-20134	0.98	Block	exp	98	20131114.114919	diff	100	same	0	1613
116	18	f	PSYC4802-20134	0.98	Block	exp	99	20131114.114923	diff	60	diff	1	1384
116	18	f	PSYC4802-20134	0.98	Block	exp	100	20131114.114926	same	60	diff	0	1806
116	18	f	PSYC4802-20134	0.98	Block	exp	101	20131114.114931	diff	100	same	0	4887
116	18	f	PSYC4802-20134	0.98	Block	exp	102	20131114.114938	same	60	same	1	915
116	18	f	PSYC4802-20134	0.98	Block	exp	103	20131114.114941	diff	60	same	0	2116
116	18	f	PSYC4802-20134	0.98	Block	exp	104	20131114.114945	same	100	same	1	1478
116	18	f	PSYC4802-20134	0.98	Block	exp	105	20131114.114949	same	20	same	1	945
116	18	f	PSYC4802-20134	0.98	Block	exp	106	20131114.114952	diff	100	diff	1	1530
116	18	f	PSYC4802-20134	0.98	Block	exp	107	20131114.114955	same	60	same	1	892
116	18	f	PSYC4802-20134	0.98	Block	exp	108	20131114.114958	same	60	same	1	1149
116	18	f	PSYC4802-20134	0.98	Block	exp	109	20131114.115001	diff	100	diff	1	1654
116	18	f	PSYC4802-20134	0.98	Block	exp	110	20131114.115005	same	100	same	1	921
116	18	f	PSYC4802-20134	0.98	Block	exp	111	20131114.115008	same	100	same	1	775
116	18	f	PSYC4802-20134	0.98	Block	exp	112	20131114.115011	same	100	same	1	593
116	18	f	PSYC4802-20134	0.98	Block	exp	113	20131114.115013	diff	60	diff	1	598
116	18	f	PSYC4802-20134	0.98	Block	exp	114	20131114.115016	diff	100	diff	1	763
116	18	f	PSYC4802-20134	0.98	Block	exp	115	20131114.115019	diff	60	diff	1	1208
116	18	f	PSYC4802-20134	0.98	Block	exp	116	20131114.115022	same	20	same	1	862
116	18	f	PSYC4802-20134	0.98	Block	exp	117	20131114.115025	same	100	same	1	1337
116	18	f	PSYC4802-20134	0.98	Block	exp	118	20131114.115028	same	60	same	1	552
116	18	f	PSYC4802-20134	0.98	Block	exp	119	20131114.115031	diff	100	diff	1	740
116	18	f	PSYC4802-20134	0.98	Block	exp	120	20131114.115034	diff	60	diff	1	932
116	18	f	PSYC4802-20134	0.98	Block	exp	121	20131114.115037	same	100	diff	0	1214
116	18	f	PSYC4802-20134	0.98	Block	exp	122	20131114.115040	same	20	same	1	751
116	18	f	PSYC4802-20134	0.98	Block	exp	123	20131114.115042	same	20	same	1	710
116	18	f	PSYC4802-20134	0.98	Block	exp	124	20131114.115045	same	60	same	1	669
116	18	f	PSYC4802-20134	0.98	Block	exp	125	20131114.115048	same	20	same	1	593
116	18	f	PSYC4802-20134	0.98	Block	exp	126	20131114.115051	same	100	diff	0	605
116	18	f	PSYC4802-20134	0.98	Block	exp	127	20131114.115053	same	20	same	1	569
116	18	f	PSYC4802-20134	0.98	Block	exp	128	20131114.115056	diff	60	diff	1	692
116	18	f	PSYC4802-20134	0.98	Block	exp	129	20131114.115058	diff	60	diff	1	628
116	18	f	PSYC4802-20134	0.98	Block	exp	130	20131114.115101	same	100	same	1	575
116	18	f	PSYC4802-20134	0.98	Block	exp	131	20131114.115104	same	20	same	1	499
116	18	f	PSYC4802-20134	0.98	Block	exp	132	20131114.115106	same	60	same	1	652
116	18	f	PSYC4802-20134	0.98	Block	exp	133	20131114.115109	same	20	same	1	475
116	18	f	PSYC4802-20134	0.98	Block	exp	134	20131114.115111	diff	100	diff	1	517
116	18	f	PSYC4802-20134	0.98	Block	exp	135	20131114.115114	diff	100	diff	1	505
116	18	f	PSYC4802-20134	0.98	Block	exp	136	20131114.115116	diff	60	same	0	868
116	18	f	PSYC4802-20134	0.98	Block	exp	137	20131114.115119	same	100	diff	0	710
116	18	f	PSYC4802-20134	0.98	Block	exp	138	20131114.115122	same	100	same	1	592
116	18	f	PSYC4802-20134	0.98	Block	exp	139	20131114.115125	same	100	same	1	657
116	18	f	PSYC4802-20134	0.98	Block	exp	140	20131114.115127	diff	20	diff	1	675
116	18	f	PSYC4802-20134	0.98	Block	exp	141	20131114.115130	diff	100	diff	1	587
116	18	f	PSYC4802-20134	0.98	Block	exp	142	20131114.115133	same	100	same	1	534
116	18	f	PSYC4802-20134	0.98	Block	exp	143	20131114.115135	diff	20	diff	1	599
116	18	f	PSYC4802-20134	0.98	Block	exp	144	20131114.115138	same	60	same	1	516
116	18	f	PSYC4802-20134	0.98	Block	exp	145	20131114.115140	diff	20	diff	1	745
116	18	f	PSYC4802-20134	0.98	Block	exp	146	20131114.115143	same	60	same	1	576
116	18	f	PSYC4802-20134	0.98	Block	exp	147	20131114.115146	diff	20	diff	1	599
116	18	f	PSYC4802-20134	0.98	Block	exp	148	20131114.115149	same	20	same	1	623
116	18	f	PSYC4802-20134	0.98	Block	exp	149	20131114.115151	diff	60	diff	1	921
116	18	f	PSYC4802-20134	0.98	Block	exp	150	20131114.115154	diff	100	same	0	710
116	18	f	PSYC4802-20134	0.98	Block	exp	151	20131114.115158	same	20	same	1	552
116	18	f	PSYC4802-20134	0.98	Block	exp	152	20131114.115201	diff	20	diff	1	546
116	18	f	PSYC4802-20134	0.98	Block	exp	153	20131114.115204	diff	60	diff	1	663
116	18	f	PSYC4802-20134	0.98	Block	exp	154	20131114.115206	diff	20	diff	1	616
116	18	f	PSYC4802-20134	0.98	Block	exp	155	20131114.115209	diff	100	diff	1	476
116	18	f	PSYC4802-20134	0.98	Block	exp	156	20131114.115211	diff	20	diff	1	558
116	18	f	PSYC4802-20134	0.98	Block	exp	157	20131114.115214	same	100	diff	0	523
116	18	f	PSYC4802-20134	0.98	Block	exp	158	20131114.115217	same	60	same	1	856
116	18	f	PSYC4802-20134	0.98	Block	exp	159	20131114.115219	diff	20	diff	1	851
116	18	f	PSYC4802-20134	0.98	Block	exp	160	20131114.115222	diff	20	diff	1	634
116	18	f	PSYC4802-20134	0.98	Block	exp	161	20131114.115225	diff	100	diff	1	804
116	18	f	PSYC4802-20134	0.98	Block	exp	162	20131114.115228	same	100	diff	0	464
116	18	f	PSYC4802-20134	0.98	Block	exp	163	20131114.115230	diff	60	diff	1	499
116	18	f	PSYC4802-20134	0.98	Block	exp	164	20131114.115233	diff	100	same	0	522
116	18	f	PSYC4802-20134	0.98	Block	exp	165	20131114.115235	diff	60	same	0	804
116	18	f	PSYC4802-20134	0.98	Block	exp	166	20131114.115238	same	20	same	1	628
116	18	f	PSYC4802-20134	0.98	Block	exp	167	20131114.115241	diff	20	diff	1	587
116	18	f	PSYC4802-20134	0.98	Block	exp	168	20131114.115243	same	20	same	1	523
116	18	f	PSYC4802-20134	0.98	Block	exp	169	20131114.115246	diff	100	diff	1	699
116	18	f	PSYC4802-20134	0.98	Block	exp	170	20131114.115249	diff	100	diff	1	1770
116	18	f	PSYC4802-20134	0.98	Block	exp	171	20131114.115252	diff	20	diff	1	745
116	18	f	PSYC4802-20134	0.98	Block	exp	172	20131114.115255	diff	100	diff	1	786
116	18	f	PSYC4802-20134	0.98	Block	exp	173	20131114.115258	diff	100	diff	1	418
116	18	f	PSYC4802-20134	0.98	Block	exp	174	20131114.115300	diff	100	diff	1	481
116	18	f	PSYC4802-20134	0.98	Block	exp	175	20131114.115303	same	60	same	1	599
116	18	f	PSYC4802-20134	0.98	Block	exp	176	20131114.115305	same	20	same	1	482
116	18	f	PSYC4802-20134	0.98	Block	exp	177	20131114.115308	diff	60	same	0	487
116	18	f	PSYC4802-20134	0.98	Block	exp	178	20131114.115310	same	100	diff	0	681
116	18	f	PSYC4802-20134	0.98	Block	exp	179	20131114.115313	same	20	same	1	956
116	18	f	PSYC4802-20134	0.98	Block	exp	180	20131114.115316	same	60	same	1	733
116	18	f	PSYC4802-20134	0.98	Block	exp	181	20131114.115318	diff	100	diff	1	915
116	18	f	PSYC4802-20134	0.98	Block	exp	182	20131114.115321	diff	60	diff	1	664
116	18	f	PSYC4802-20134	0.98	Block	exp	183	20131114.115324	diff	100	diff	1	657
116	18	f	PSYC4802-20134	0.98	Block	exp	184	20131114.115327	diff	100	diff	1	569
116	18	f	PSYC4802-20134	0.98	Block	exp	185	20131114.115329	same	60	same	1	904
116	18	f	PSYC4802-20134	0.98	Block	exp	186	20131114.115332	diff	20	diff	1	704
116	18	f	PSYC4802-20134	0.98	Block	exp	187	20131114.115335	same	20	same	1	540
116	18	f	PSYC4802-20134	0.98	Block	exp	188	20131114.115337	diff	100	diff	1	658
116	18	f	PSYC4802-20134	0.98	Block	exp	189	20131114.115340	diff	60	same	0	605
116	18	f	PSYC4802-20134	0.98	Block	exp	190	20131114.115343	diff	20	diff	1	909
116	18	f	PSYC4802-20134	0.98	Block	exp	191	20131114.115346	diff	20	diff	1	616
116	18	f	PSYC4802-20134	0.98	Block	exp	192	20131114.115348	same	60	same	1	675
116	18	f	PSYC4802-20134	0.98	Block	exp	193	20131114.115351	same	20	same	1	640
116	18	f	PSYC4802-20134	0.98	Block	exp	194	20131114.115353	same	60	same	1	1202
116	18	f	PSYC4802-20134	0.98	Block	exp	195	20131114.115357	same	20	same	1	564
116	18	f	PSYC4802-20134	0.98	Block	exp	196	20131114.115359	same	60	same	1	569
116	18	f	PSYC4802-20134	0.98	Block	exp	197	20131114.115402	diff	60	diff	1	593
116	18	f	PSYC4802-20134	0.98	Block	exp	198	20131114.115404	same	20	same	1	505
116	18	f	PSYC4802-20134	0.98	Block	exp	199	20131114.115407	diff	20	diff	1	529
116	18	f	PSYC4802-20134	0.98	Block	exp	200	20131114.115409	diff	100	diff	1	798
116	18	f	PSYC4802-20134	0.98	Block	exp	201	20131114.115415	diff	100	same	0	716
116	18	f	PSYC4802-20134	0.98	Block	exp	202	20131114.115418	same	100	same	1	569
116	18	f	PSYC4802-20134	0.98	Block	exp	203	20131114.115421	diff	20	diff	1	505
116	18	f	PSYC4802-20134	0.98	Block	exp	204	20131114.115423	same	20	same	1	557
116	18	f	PSYC4802-20134	0.98	Block	exp	205	20131114.115426	diff	100	same	0	780
116	18	f	PSYC4802-20134	0.98	Block	exp	206	20131114.115428	diff	60	same	0	722
116	18	f	PSYC4802-20134	0.98	Block	exp	207	20131114.115431	diff	20	diff	1	815
116	18	f	PSYC4802-20134	0.98	Block	exp	208	20131114.115434	same	60	same	1	611
116	18	f	PSYC4802-20134	0.98	Block	exp	209	20131114.115437	same	60	same	1	669
116	18	f	PSYC4802-20134	0.98	Block	exp	210	20131114.115439	diff	20	same	0	634
116	18	f	PSYC4802-20134	0.98	Block	exp	211	20131114.115442	same	60	same	1	1103
116	18	f	PSYC4802-20134	0.98	Block	exp	212	20131114.115445	diff	100	diff	1	1390
116	18	f	PSYC4802-20134	0.98	Block	exp	213	20131114.115448	same	60	same	1	862
116	18	f	PSYC4802-20134	0.98	Block	exp	214	20131114.115451	diff	100	diff	1	640
116	18	f	PSYC4802-20134	0.98	Block	exp	215	20131114.115454	same	20	same	1	575
116	18	f	PSYC4802-20134	0.98	Block	exp	216	20131114.115456	same	20	same	1	523
116	18	f	PSYC4802-20134	0.98	Block	exp	217	20131114.115459	same	100	same	1	727
116	18	f	PSYC4802-20134	0.98	Block	exp	218	20131114.115502	diff	60	same	0	710
116	18	f	PSYC4802-20134	0.98	Block	exp	219	20131114.115504	same	20	same	1	610
116	18	f	PSYC4802-20134	0.98	Block	exp	220	20131114.115507	diff	60	diff	1	616
116	18	f	PSYC4802-20134	0.98	Block	exp	221	20131114.115510	diff	100	diff	1	669
116	18	f	PSYC4802-20134	0.98	Block	exp	222	20131114.115512	diff	20	same	0	628
116	18	f	PSYC4802-20134	0.98	Block	exp	223	20131114.115515	diff	100	diff	1	587
116	18	f	PSYC4802-20134	0.98	Block	exp	224	20131114.115518	same	100	diff	0	616
116	18	f	PSYC4802-20134	0.98	Block	exp	225	20131114.115520	diff	60	diff	1	681
116	18	f	PSYC4802-20134	0.98	Block	exp	226	20131114.115523	same	60	same	1	833
116	18	f	PSYC4802-20134	0.98	Block	exp	227	20131114.115526	same	100	same	1	763
116	18	f	PSYC4802-20134	0.98	Block	exp	228	20131114.115529	same	60	same	1	622
116	18	f	PSYC4802-20134	0.98	Block	exp	229	20131114.115531	same	100	diff	0	616
116	18	f	PSYC4802-20134	0.98	Block	exp	230	20131114.115534	same	100	same	1	610
116	18	f	PSYC4802-20134	0.98	Block	exp	231	20131114.115536	same	20	same	1	499
116	18	f	PSYC4802-20134	0.98	Block	exp	232	20131114.115539	diff	100	diff	1	727
116	18	f	PSYC4802-20134	0.98	Block	exp	233	20131114.115542	same	100	diff	0	715
116	18	f	PSYC4802-20134	0.98	Block	exp	234	20131114.115544	same	100	diff	0	634
116	18	f	PSYC4802-20134	0.98	Block	exp	235	20131114.115547	diff	60	diff	1	681
116	18	f	PSYC4802-20134	0.98	Block	exp	236	20131114.115550	same	100	same	1	763
116	18	f	PSYC4802-20134	0.98	Block	exp	237	20131114.115552	same	20	same	1	587
116	18	f	PSYC4802-20134	0.98	Block	exp	238	20131114.115555	diff	20	same	0	587
116	18	f	PSYC4802-20134	0.98	Block	exp	239	20131114.115558	diff	20	diff	1	740
116	18	f	PSYC4802-20134	0.98	Block	exp	240	20131114.115600	diff	100	diff	1	681
116	18	f	PSYC4802-20134	0.98	Block	exp	241	20131114.115603	diff	20	diff	1	581
116	18	f	PSYC4802-20134	0.98	Block	exp	242	20131114.115606	diff	100	diff	1	575
116	18	f	PSYC4802-20134	0.98	Block	exp	243	20131114.115608	diff	60	diff	1	535
116	18	f	PSYC4802-20134	0.98	Block	exp	244	20131114.115611	diff	60	diff	1	552
116	18	f	PSYC4802-20134	0.98	Block	exp	245	20131114.115613	diff	100	same	0	687
116	18	f	PSYC4802-20134	0.98	Block	exp	246	20131114.115616	diff	100	diff	1	856
116	18	f	PSYC4802-20134	0.98	Block	exp	247	20131114.115619	same	60	same	1	839
116	18	f	PSYC4802-20134	0.98	Block	exp	248	20131114.115622	same	20	same	1	546
116	18	f	PSYC4802-20134	0.98	Block	exp	249	20131114.115624	same	60	same	1	663
116	18	f	PSYC4802-20134	0.98	Block	exp	250	20131114.115627	same	60	same	1	728
116	18	f	PSYC4802-20134	0.98	Block	exp	251	20131114.115631	diff	100	same	0	710
116	18	f	PSYC4802-20134	0.98	Block	exp	252	20131114.115634	same	100	diff	0	1003
116	18	f	PSYC4802-20134	0.98	Block	exp	253	20131114.115637	same	100	same	1	593
116	18	f	PSYC4802-20134	0.98	Block	exp	254	20131114.115639	same	100	diff	0	740
116	18	f	PSYC4802-20134	0.98	Block	exp	255	20131114.115642	diff	100	same	0	657
116	18	f	PSYC4802-20134	0.98	Block	exp	256	20131114.115645	same	20	same	1	546
116	18	f	PSYC4802-20134	0.98	Block	exp	257	20131114.115647	same	60	same	1	570
116	18	f	PSYC4802-20134	0.98	Block	exp	258	20131114.115650	diff	60	same	0	563
116	18	f	PSYC4802-20134	0.98	Block	exp	259	20131114.115653	diff	100	diff	1	1343
116	18	f	PSYC4802-20134	0.98	Block	exp	260	20131114.115656	diff	20	diff	1	1115
116	18	f	PSYC4802-20134	0.98	Block	exp	261	20131114.115659	diff	100	diff	1	646
116	18	f	PSYC4802-20134	0.98	Block	exp	262	20131114.115702	diff	60	diff	1	1014
116	18	f	PSYC4802-20134	0.98	Block	exp	263	20131114.115705	same	60	same	1	827
116	18	f	PSYC4802-20134	0.98	Block	exp	264	20131114.115708	same	100	diff	0	798
116	18	f	PSYC4802-20134	0.98	Block	exp	265	20131114.115710	diff	20	diff	1	1367
116	18	f	PSYC4802-20134	0.98	Block	exp	266	20131114.115714	diff	100	diff	1	710
116	18	f	PSYC4802-20134	0.98	Block	exp	267	20131114.115716	diff	60	diff	1	1648
116	18	f	PSYC4802-20134	0.98	Block	exp	268	20131114.115720	same	60	same	1	570
116	18	f	PSYC4802-20134	0.98	Block	exp	269	20131114.115723	same	60	same	1	962
116	18	f	PSYC4802-20134	0.98	Block	exp	270	20131114.115726	same	60	same	1	616
116	18	f	PSYC4802-20134	0.98	Block	exp	271	20131114.115728	diff	20	same	0	639
116	18	f	PSYC4802-20134	0.98	Block	exp	272	20131114.115731	same	60	same	1	692
116	18	f	PSYC4802-20134	0.98	Block	exp	273	20131114.115734	diff	60	diff	1	991
116	18	f	PSYC4802-20134	0.98	Block	exp	274	20131114.115737	same	60	same	1	769
116	18	f	PSYC4802-20134	0.98	Block	exp	275	20131114.115739	same	100	same	1	1179
116	18	f	PSYC4802-20134	0.98	Block	exp	276	20131114.115743	same	20	same	1	581
116	18	f	PSYC4802-20134	0.98	Block	exp	277	20131114.115745	diff	20	diff	1	833
116	18	f	PSYC4802-20134	0.98	Block	exp	278	20131114.115748	same	100	same	1	822
116	18	f	PSYC4802-20134	0.98	Block	exp	279	20131114.115751	same	100	diff	0	1255
116	18	f	PSYC4802-20134	0.98	Block	exp	280	20131114.115754	diff	20	diff	1	1296
116	18	f	PSYC4802-20134	0.98	Block	exp	281	20131114.115757	same	20	same	1	552
116	18	f	PSYC4802-20134	0.98	Block	exp	282	20131114.115800	same	100	diff	0	669
116	18	f	PSYC4802-20134	0.98	Block	exp	283	20131114.115803	diff	60	diff	1	751
116	18	f	PSYC4802-20134	0.98	Block	exp	284	20131114.115805	same	60	same	1	599
116	18	f	PSYC4802-20134	0.98	Block	exp	285	20131114.115808	same	20	same	1	780
116	18	f	PSYC4802-20134	0.98	Block	exp	286	20131114.115811	diff	20	diff	1	651
116	18	f	PSYC4802-20134	0.98	Block	exp	287	20131114.115813	diff	100	same	0	657
116	18	f	PSYC4802-20134	0.98	Block	exp	288	20131114.115816	same	100	same	1	616
116	18	f	PSYC4802-20134	0.98	Block	exp	289	20131114.115819	same	20	same	1	651
116	18	f	PSYC4802-20134	0.98	Block	exp	290	20131114.115821	diff	20	diff	1	763
116	18	f	PSYC4802-20134	0.98	Block	exp	291	20131114.115824	same	20	same	1	780
116	18	f	PSYC4802-20134	0.98	Block	exp	292	20131114.115827	diff	20	diff	1	833
116	18	f	PSYC4802-20134	0.98	Block	exp	293	20131114.115830	same	20	same	1	722
116	18	f	PSYC4802-20134	0.98	Block	exp	294	20131114.115832	same	100	diff	0	716
116	18	f	PSYC4802-20134	0.98	Block	exp	295	20131114.115835	same	100	diff	0	950
116	18	f	PSYC4802-20134	0.98	Block	exp	296	20131114.115838	same	60	same	1	651
116	18	f	PSYC4802-20134	0.98	Block	exp	297	20131114.115841	diff	60	diff	1	1003
116	18	f	PSYC4802-20134	0.98	Block	exp	298	20131114.115844	diff	60	same	0	1301
116	18	f	PSYC4802-20134	0.98	Block	exp	299	20131114.115847	same	20	same	1	611
116	18	f	PSYC4802-20134	0.98	Block	exp	300	20131114.115850	diff	60	diff	1	669
