Subject	Age	Sex	Experiment	Version	Block	TrialType	Trial	Timestamp	SameDiff	Rotation	Response	Acc	RT
14	18	M	PSYC4802-20134	0.98	Block	practice	1	20131014.113103	diff	100	same	0	2521
14	18	M	PSYC4802-20134	0.98	Block	practice	2	20131014.113109	diff	100	same	0	1372
14	18	M	PSYC4802-20134	0.98	Block	practice	3	20131014.113112	diff	60	same	0	2099
14	18	M	PSYC4802-20134	0.98	Block	practice	4	20131014.113117	same	100	same	1	1553
14	18	M	PSYC4802-20134	0.98	Block	practice	5	20131014.113120	diff	20	same	0	1758
14	18	M	PSYC4802-20134	0.98	Block	practice	6	20131014.113124	same	20	same	1	1296
14	18	M	PSYC4802-20134	0.98	Block	practice	7	20131014.113127	diff	60	diff	1	1507
14	18	M	PSYC4802-20134	0.98	Block	practice	8	20131014.113131	same	20	same	1	1208
14	18	M	PSYC4802-20134	0.98	Block	practice	9	20131014.113134	same	60	same	1	1723
14	18	M	PSYC4802-20134	0.98	Block	practice	10	20131014.113138	diff	20	same	0	1993
14	18	M	PSYC4802-20134	0.98	Block	practice	11	20131014.113142	diff	60	same	0	1894
14	18	M	PSYC4802-20134	0.98	Block	practice	12	20131014.113146	same	20	same	1	868
14	18	M	PSYC4802-20134	0.98	Block	practice	13	20131014.113149	same	100	diff	0	1367
14	18	M	PSYC4802-20134	0.98	Block	practice	14	20131014.113152	diff	100	same	0	1823
14	18	M	PSYC4802-20134	0.98	Block	practice	15	20131014.113156	diff	60	diff	1	2427
14	18	M	PSYC4802-20134	0.98	Block	practice	16	20131014.113201	same	100	same	1	2966
14	18	M	PSYC4802-20134	0.98	Block	practice	17	20131014.113206	diff	20	diff	1	1794
14	18	M	PSYC4802-20134	0.98	Block	practice	18	20131014.113209	diff	100	same	0	1952
14	18	M	PSYC4802-20134	0.98	Block	practice	19	20131014.113213	diff	20	diff	1	1472
14	18	M	PSYC4802-20134	0.98	Block	practice	20	20131014.113217	same	20	same	1	1173
14	18	M	PSYC4802-20134	0.98	Block	practice	21	20131014.113220	diff	20	diff	1	1707
14	18	M	PSYC4802-20134	0.98	Block	practice	22	20131014.113224	same	100	same	1	2046
14	18	M	PSYC4802-20134	0.98	Block	practice	23	20131014.113228	diff	60	diff	1	2362
14	18	M	PSYC4802-20134	0.98	Block	practice	24	20131014.113232	same	60	same	1	1290
14	18	M	PSYC4802-20134	0.98	Block	practice	25	20131014.113236	same	100	same	1	1197
14	18	M	PSYC4802-20134	0.98	Block	practice	26	20131014.113239	diff	100	diff	1	1214
14	18	M	PSYC4802-20134	0.98	Block	practice	27	20131014.113242	same	60	same	1	1314
14	18	M	PSYC4802-20134	0.98	Block	practice	28	20131014.113246	same	20	same	1	1219
14	18	M	PSYC4802-20134	0.98	Block	practice	29	20131014.113249	same	60	diff	0	1700
14	18	M	PSYC4802-20134	0.98	Block	practice	30	20131014.113253	same	60	same	1	1548
14	18	M	PSYC4802-20134	0.98	Block	exp	31	20131014.113256	same	100	same	1	1424
14	18	M	PSYC4802-20134	0.98	Block	exp	32	20131014.113300	same	20	same	1	1097
14	18	M	PSYC4802-20134	0.98	Block	exp	33	20131014.113303	same	20	same	1	1407
14	18	M	PSYC4802-20134	0.98	Block	exp	34	20131014.113306	diff	60	diff	1	2081
14	18	M	PSYC4802-20134	0.98	Block	exp	35	20131014.113311	diff	60	diff	1	1882
14	18	M	PSYC4802-20134	0.98	Block	exp	36	20131014.113314	diff	60	diff	1	1554
14	18	M	PSYC4802-20134	0.98	Block	exp	37	20131014.113318	same	100	diff	0	1840
14	18	M	PSYC4802-20134	0.98	Block	exp	38	20131014.113322	diff	20	diff	1	1431
14	18	M	PSYC4802-20134	0.98	Block	exp	39	20131014.113325	diff	20	diff	1	1490
14	18	M	PSYC4802-20134	0.98	Block	exp	40	20131014.113329	same	20	same	1	1244
14	18	M	PSYC4802-20134	0.98	Block	exp	41	20131014.113332	diff	20	diff	1	1940
14	18	M	PSYC4802-20134	0.98	Block	exp	42	20131014.113336	diff	60	same	0	1565
14	18	M	PSYC4802-20134	0.98	Block	exp	43	20131014.113340	diff	20	diff	1	1841
14	18	M	PSYC4802-20134	0.98	Block	exp	44	20131014.113344	same	20	same	1	1548
14	18	M	PSYC4802-20134	0.98	Block	exp	45	20131014.113347	diff	60	same	0	2152
14	18	M	PSYC4802-20134	0.98	Block	exp	46	20131014.113352	same	20	same	1	2040
14	18	M	PSYC4802-20134	0.98	Block	exp	47	20131014.113356	diff	20	diff	1	1654
14	18	M	PSYC4802-20134	0.98	Block	exp	48	20131014.113359	same	100	same	1	1723
14	18	M	PSYC4802-20134	0.98	Block	exp	49	20131014.113403	same	100	diff	0	1946
14	18	M	PSYC4802-20134	0.98	Block	exp	50	20131014.113407	same	100	same	1	1150
14	18	M	PSYC4802-20134	0.98	Block	exp	51	20131014.113413	same	100	same	1	1425
14	18	M	PSYC4802-20134	0.98	Block	exp	52	20131014.113417	same	60	diff	0	1923
14	18	M	PSYC4802-20134	0.98	Block	exp	53	20131014.113421	same	60	same	1	985
14	18	M	PSYC4802-20134	0.98	Block	exp	54	20131014.113424	diff	100	diff	1	1818
14	18	M	PSYC4802-20134	0.98	Block	exp	55	20131014.113428	same	100	same	1	1097
14	18	M	PSYC4802-20134	0.98	Block	exp	56	20131014.113431	diff	60	diff	1	1407
14	18	M	PSYC4802-20134	0.98	Block	exp	57	20131014.113435	diff	100	same	0	1853
14	18	M	PSYC4802-20134	0.98	Block	exp	58	20131014.113438	same	60	same	1	1829
14	18	M	PSYC4802-20134	0.98	Block	exp	59	20131014.113442	diff	100	diff	1	2275
14	18	M	PSYC4802-20134	0.98	Block	exp	60	20131014.113447	same	100	diff	0	2146
14	18	M	PSYC4802-20134	0.98	Block	exp	61	20131014.113451	same	60	same	1	1407
14	18	M	PSYC4802-20134	0.98	Block	exp	62	20131014.113454	same	60	same	1	1009
14	18	M	PSYC4802-20134	0.98	Block	exp	63	20131014.113457	same	60	same	1	1882
14	18	M	PSYC4802-20134	0.98	Block	exp	64	20131014.113501	diff	20	diff	1	1630
14	18	M	PSYC4802-20134	0.98	Block	exp	65	20131014.113505	same	100	same	1	2034
14	18	M	PSYC4802-20134	0.98	Block	exp	66	20131014.113509	diff	60	diff	1	1267
14	18	M	PSYC4802-20134	0.98	Block	exp	67	20131014.113512	same	100	same	1	1449
14	18	M	PSYC4802-20134	0.98	Block	exp	68	20131014.113516	same	100	same	1	1320
14	18	M	PSYC4802-20134	0.98	Block	exp	69	20131014.113519	diff	60	diff	1	968
14	18	M	PSYC4802-20134	0.98	Block	exp	70	20131014.113522	same	20	same	1	979
14	18	M	PSYC4802-20134	0.98	Block	exp	71	20131014.113525	same	20	same	1	786
14	18	M	PSYC4802-20134	0.98	Block	exp	72	20131014.113528	diff	20	diff	1	1518
14	18	M	PSYC4802-20134	0.98	Block	exp	73	20131014.113532	diff	20	same	0	1337
14	18	M	PSYC4802-20134	0.98	Block	exp	74	20131014.113535	diff	20	diff	1	2814
14	18	M	PSYC4802-20134	0.98	Block	exp	75	20131014.113540	same	100	same	1	1484
14	18	M	PSYC4802-20134	0.98	Block	exp	76	20131014.113544	diff	100	diff	1	1490
14	18	M	PSYC4802-20134	0.98	Block	exp	77	20131014.113547	diff	100	diff	1	1876
14	18	M	PSYC4802-20134	0.98	Block	exp	78	20131014.113551	diff	20	diff	1	2849
14	18	M	PSYC4802-20134	0.98	Block	exp	79	20131014.113556	same	100	same	1	2029
14	18	M	PSYC4802-20134	0.98	Block	exp	80	20131014.113600	diff	100	same	0	1525
14	18	M	PSYC4802-20134	0.98	Block	exp	81	20131014.113604	diff	60	diff	1	2116
14	18	M	PSYC4802-20134	0.98	Block	exp	82	20131014.113608	diff	60	diff	1	1425
14	18	M	PSYC4802-20134	0.98	Block	exp	83	20131014.113611	same	100	same	1	2802
14	18	M	PSYC4802-20134	0.98	Block	exp	84	20131014.113616	diff	100	diff	1	1940
14	18	M	PSYC4802-20134	0.98	Block	exp	85	20131014.113620	same	20	same	1	1320
14	18	M	PSYC4802-20134	0.98	Block	exp	86	20131014.113623	same	100	diff	0	757
14	18	M	PSYC4802-20134	0.98	Block	exp	87	20131014.113626	same	100	same	1	1097
14	18	M	PSYC4802-20134	0.98	Block	exp	88	20131014.113629	diff	20	diff	1	868
14	18	M	PSYC4802-20134	0.98	Block	exp	89	20131014.113632	same	60	same	1	1430
14	18	M	PSYC4802-20134	0.98	Block	exp	90	20131014.113636	same	20	same	1	1536
14	18	M	PSYC4802-20134	0.98	Block	exp	91	20131014.113639	diff	100	same	0	1009
14	18	M	PSYC4802-20134	0.98	Block	exp	92	20131014.113642	same	60	same	1	1566
14	18	M	PSYC4802-20134	0.98	Block	exp	93	20131014.113646	diff	20	diff	1	1372
14	18	M	PSYC4802-20134	0.98	Block	exp	94	20131014.113649	same	20	same	1	945
14	18	M	PSYC4802-20134	0.98	Block	exp	95	20131014.113652	diff	100	diff	1	1742
14	18	M	PSYC4802-20134	0.98	Block	exp	96	20131014.113656	same	100	same	1	3013
14	18	M	PSYC4802-20134	0.98	Block	exp	97	20131014.113701	diff	60	diff	1	1577
14	18	M	PSYC4802-20134	0.98	Block	exp	98	20131014.113705	same	60	same	1	1660
14	18	M	PSYC4802-20134	0.98	Block	exp	99	20131014.113709	diff	20	diff	1	2210
14	18	M	PSYC4802-20134	0.98	Block	exp	100	20131014.113713	same	60	same	1	1096
14	18	M	PSYC4802-20134	0.98	Block	exp	101	20131014.113719	same	20	same	1	886
14	18	M	PSYC4802-20134	0.98	Block	exp	102	20131014.113722	diff	100	diff	1	1911
14	18	M	PSYC4802-20134	0.98	Block	exp	103	20131014.113726	diff	100	diff	1	1390
14	18	M	PSYC4802-20134	0.98	Block	exp	104	20131014.113729	same	20	same	1	839
14	18	M	PSYC4802-20134	0.98	Block	exp	105	20131014.113732	diff	100	diff	1	1947
14	18	M	PSYC4802-20134	0.98	Block	exp	106	20131014.113736	diff	20	same	0	1348
14	18	M	PSYC4802-20134	0.98	Block	exp	107	20131014.113740	same	20	same	1	1032
14	18	M	PSYC4802-20134	0.98	Block	exp	108	20131014.113743	same	60	same	1	1020
14	18	M	PSYC4802-20134	0.98	Block	exp	109	20131014.113746	diff	20	same	0	986
14	18	M	PSYC4802-20134	0.98	Block	exp	110	20131014.113749	diff	60	diff	1	1689
14	18	M	PSYC4802-20134	0.98	Block	exp	111	20131014.113752	same	60	same	1	1501
14	18	M	PSYC4802-20134	0.98	Block	exp	112	20131014.113756	diff	20	diff	1	1208
14	18	M	PSYC4802-20134	0.98	Block	exp	113	20131014.113759	diff	20	diff	1	2432
14	18	M	PSYC4802-20134	0.98	Block	exp	114	20131014.113804	diff	100	diff	1	1396
14	18	M	PSYC4802-20134	0.98	Block	exp	115	20131014.113807	diff	60	diff	1	2058
14	18	M	PSYC4802-20134	0.98	Block	exp	116	20131014.113811	same	100	same	1	1894
14	18	M	PSYC4802-20134	0.98	Block	exp	117	20131014.113815	diff	60	diff	1	1320
14	18	M	PSYC4802-20134	0.98	Block	exp	118	20131014.113819	same	60	same	1	921
14	18	M	PSYC4802-20134	0.98	Block	exp	119	20131014.113822	diff	60	diff	1	1326
14	18	M	PSYC4802-20134	0.98	Block	exp	120	20131014.113825	diff	100	diff	1	2210
14	18	M	PSYC4802-20134	0.98	Block	exp	121	20131014.113829	same	20	same	1	857
14	18	M	PSYC4802-20134	0.98	Block	exp	122	20131014.113832	diff	100	diff	1	1701
14	18	M	PSYC4802-20134	0.98	Block	exp	123	20131014.113836	same	100	same	1	916
14	18	M	PSYC4802-20134	0.98	Block	exp	124	20131014.113839	diff	100	diff	1	2228
14	18	M	PSYC4802-20134	0.98	Block	exp	125	20131014.113843	same	20	same	1	1062
14	18	M	PSYC4802-20134	0.98	Block	exp	126	20131014.113846	diff	100	same	0	1214
14	18	M	PSYC4802-20134	0.98	Block	exp	127	20131014.113849	same	100	same	1	1519
14	18	M	PSYC4802-20134	0.98	Block	exp	128	20131014.113853	diff	20	diff	1	1618
14	18	M	PSYC4802-20134	0.98	Block	exp	129	20131014.113857	same	60	same	1	1202
14	18	M	PSYC4802-20134	0.98	Block	exp	130	20131014.113900	same	20	same	1	698
14	18	M	PSYC4802-20134	0.98	Block	exp	131	20131014.113903	diff	100	diff	1	886
14	18	M	PSYC4802-20134	0.98	Block	exp	132	20131014.113905	same	60	same	1	1033
14	18	M	PSYC4802-20134	0.98	Block	exp	133	20131014.113909	same	60	same	1	2632
14	18	M	PSYC4802-20134	0.98	Block	exp	134	20131014.113913	same	20	same	1	827
14	18	M	PSYC4802-20134	0.98	Block	exp	135	20131014.113916	same	20	same	1	1114
14	18	M	PSYC4802-20134	0.98	Block	exp	136	20131014.113919	same	20	same	1	839
14	18	M	PSYC4802-20134	0.98	Block	exp	137	20131014.113922	same	60	same	1	599
14	18	M	PSYC4802-20134	0.98	Block	exp	138	20131014.113925	same	100	diff	0	863
14	18	M	PSYC4802-20134	0.98	Block	exp	139	20131014.113928	diff	100	diff	1	1583
14	18	M	PSYC4802-20134	0.98	Block	exp	140	20131014.113931	diff	20	diff	1	1354
14	18	M	PSYC4802-20134	0.98	Block	exp	141	20131014.113935	diff	20	diff	1	1038
14	18	M	PSYC4802-20134	0.98	Block	exp	142	20131014.113938	same	60	same	1	1858
14	18	M	PSYC4802-20134	0.98	Block	exp	143	20131014.113942	same	60	same	1	1413
14	18	M	PSYC4802-20134	0.98	Block	exp	144	20131014.113945	same	100	same	1	1278
14	18	M	PSYC4802-20134	0.98	Block	exp	145	20131014.113949	same	100	same	1	1149
14	18	M	PSYC4802-20134	0.98	Block	exp	146	20131014.113952	same	100	same	1	1097
14	18	M	PSYC4802-20134	0.98	Block	exp	147	20131014.113955	same	60	same	1	850
14	18	M	PSYC4802-20134	0.98	Block	exp	148	20131014.113958	diff	100	diff	1	2895
14	18	M	PSYC4802-20134	0.98	Block	exp	149	20131014.114003	diff	60	diff	1	1577
14	18	M	PSYC4802-20134	0.98	Block	exp	150	20131014.114006	same	100	same	1	1677
14	18	M	PSYC4802-20134	0.98	Block	exp	151	20131014.114014	diff	100	diff	1	956
14	18	M	PSYC4802-20134	0.98	Block	exp	152	20131014.114017	same	20	same	1	792
14	18	M	PSYC4802-20134	0.98	Block	exp	153	20131014.114020	same	20	same	1	1619
14	18	M	PSYC4802-20134	0.98	Block	exp	154	20131014.114024	diff	60	diff	1	1478
14	18	M	PSYC4802-20134	0.98	Block	exp	155	20131014.114027	same	20	same	1	851
14	18	M	PSYC4802-20134	0.98	Block	exp	156	20131014.114030	diff	100	diff	1	956
14	18	M	PSYC4802-20134	0.98	Block	exp	157	20131014.114033	diff	20	diff	1	1114
14	18	M	PSYC4802-20134	0.98	Block	exp	158	20131014.114036	diff	20	diff	1	1009
14	18	M	PSYC4802-20134	0.98	Block	exp	159	20131014.114039	diff	20	diff	1	1307
14	18	M	PSYC4802-20134	0.98	Block	exp	160	20131014.114043	same	100	same	1	1056
14	18	M	PSYC4802-20134	0.98	Block	exp	161	20131014.114046	same	60	diff	0	944
14	18	M	PSYC4802-20134	0.98	Block	exp	162	20131014.114049	diff	60	diff	1	1443
14	18	M	PSYC4802-20134	0.98	Block	exp	163	20131014.114052	diff	60	same	0	1191
14	18	M	PSYC4802-20134	0.98	Block	exp	164	20131014.114055	diff	60	diff	1	2409
14	18	M	PSYC4802-20134	0.98	Block	exp	165	20131014.114100	same	20	same	1	956
14	18	M	PSYC4802-20134	0.98	Block	exp	166	20131014.114103	diff	20	diff	1	2544
14	18	M	PSYC4802-20134	0.98	Block	exp	167	20131014.114107	same	60	same	1	774
14	18	M	PSYC4802-20134	0.98	Block	exp	168	20131014.114110	diff	100	diff	1	1179
14	18	M	PSYC4802-20134	0.98	Block	exp	169	20131014.114114	same	100	same	1	1900
14	18	M	PSYC4802-20134	0.98	Block	exp	170	20131014.114117	diff	100	diff	1	1208
14	18	M	PSYC4802-20134	0.98	Block	exp	171	20131014.114121	same	60	same	1	921
14	18	M	PSYC4802-20134	0.98	Block	exp	172	20131014.114124	diff	100	diff	1	816
14	18	M	PSYC4802-20134	0.98	Block	exp	173	20131014.114127	diff	20	diff	1	1296
14	18	M	PSYC4802-20134	0.98	Block	exp	174	20131014.114130	same	100	same	1	804
14	18	M	PSYC4802-20134	0.98	Block	exp	175	20131014.114133	diff	20	same	0	657
14	18	M	PSYC4802-20134	0.98	Block	exp	176	20131014.114135	diff	100	diff	1	1864
14	18	M	PSYC4802-20134	0.98	Block	exp	177	20131014.114139	diff	100	diff	1	1179
14	18	M	PSYC4802-20134	0.98	Block	exp	178	20131014.114143	diff	100	diff	1	2432
14	18	M	PSYC4802-20134	0.98	Block	exp	179	20131014.114147	same	60	same	1	868
14	18	M	PSYC4802-20134	0.98	Block	exp	180	20131014.114150	same	20	same	1	1085
14	18	M	PSYC4802-20134	0.98	Block	exp	181	20131014.114153	diff	100	diff	1	2374
14	18	M	PSYC4802-20134	0.98	Block	exp	182	20131014.114158	diff	20	diff	1	2163
14	18	M	PSYC4802-20134	0.98	Block	exp	183	20131014.114202	same	60	same	1	1273
14	18	M	PSYC4802-20134	0.98	Block	exp	184	20131014.114205	same	20	same	1	822
14	18	M	PSYC4802-20134	0.98	Block	exp	185	20131014.114208	same	60	same	1	797
14	18	M	PSYC4802-20134	0.98	Block	exp	186	20131014.114211	diff	100	diff	1	1455
14	18	M	PSYC4802-20134	0.98	Block	exp	187	20131014.114214	diff	100	diff	1	997
14	18	M	PSYC4802-20134	0.98	Block	exp	188	20131014.114217	same	60	same	1	1208
14	18	M	PSYC4802-20134	0.98	Block	exp	189	20131014.114221	diff	60	diff	1	1565
14	18	M	PSYC4802-20134	0.98	Block	exp	190	20131014.114224	same	20	same	1	921
14	18	M	PSYC4802-20134	0.98	Block	exp	191	20131014.114227	diff	60	diff	1	821
14	18	M	PSYC4802-20134	0.98	Block	exp	192	20131014.114230	diff	60	diff	1	2052
14	18	M	PSYC4802-20134	0.98	Block	exp	193	20131014.114234	diff	100	diff	1	1947
14	18	M	PSYC4802-20134	0.98	Block	exp	194	20131014.114238	diff	20	diff	1	1952
14	18	M	PSYC4802-20134	0.98	Block	exp	195	20131014.114242	diff	60	diff	1	1929
14	18	M	PSYC4802-20134	0.98	Block	exp	196	20131014.114246	same	20	same	1	886
14	18	M	PSYC4802-20134	0.98	Block	exp	197	20131014.114249	same	100	diff	0	1694
14	18	M	PSYC4802-20134	0.98	Block	exp	198	20131014.114253	same	60	same	1	1009
14	18	M	PSYC4802-20134	0.98	Block	exp	199	20131014.114256	diff	20	diff	1	1759
14	18	M	PSYC4802-20134	0.98	Block	exp	200	20131014.114300	diff	20	diff	1	1331
14	18	M	PSYC4802-20134	0.98	Block	exp	201	20131014.114306	same	60	same	1	1524
14	18	M	PSYC4802-20134	0.98	Block	exp	202	20131014.114309	diff	60	diff	1	2626
14	18	M	PSYC4802-20134	0.98	Block	exp	203	20131014.114314	same	100	diff	0	1607
14	18	M	PSYC4802-20134	0.98	Block	exp	204	20131014.114317	diff	20	same	0	909
14	18	M	PSYC4802-20134	0.98	Block	exp	205	20131014.114320	same	60	same	1	2661
14	18	M	PSYC4802-20134	0.98	Block	exp	206	20131014.114325	diff	20	diff	1	1993
14	18	M	PSYC4802-20134	0.98	Block	exp	207	20131014.114329	same	100	same	1	3201
14	18	M	PSYC4802-20134	0.98	Block	exp	208	20131014.114334	same	100	same	1	1050
14	18	M	PSYC4802-20134	0.98	Block	exp	209	20131014.114337	diff	60	diff	1	1735
14	18	M	PSYC4802-20134	0.98	Block	exp	210	20131014.114341	same	100	same	1	1495
14	18	M	PSYC4802-20134	0.98	Block	exp	211	20131014.114345	diff	20	diff	1	1278
14	18	M	PSYC4802-20134	0.98	Block	exp	212	20131014.114348	same	20	same	1	956
14	18	M	PSYC4802-20134	0.98	Block	exp	213	20131014.114351	same	100	same	1	980
14	18	M	PSYC4802-20134	0.98	Block	exp	214	20131014.114354	diff	60	diff	1	1783
14	18	M	PSYC4802-20134	0.98	Block	exp	215	20131014.114358	same	20	same	1	827
14	18	M	PSYC4802-20134	0.98	Block	exp	216	20131014.114401	same	100	same	1	839
14	18	M	PSYC4802-20134	0.98	Block	exp	217	20131014.114404	diff	20	same	0	1331
14	18	M	PSYC4802-20134	0.98	Block	exp	218	20131014.114407	same	60	same	1	909
14	18	M	PSYC4802-20134	0.98	Block	exp	219	20131014.114410	same	20	same	1	751
14	18	M	PSYC4802-20134	0.98	Block	exp	220	20131014.114413	diff	20	diff	1	1940
14	18	M	PSYC4802-20134	0.98	Block	exp	221	20131014.114417	same	20	same	1	733
14	18	M	PSYC4802-20134	0.98	Block	exp	222	20131014.114419	diff	20	diff	1	1683
14	18	M	PSYC4802-20134	0.98	Block	exp	223	20131014.114423	diff	20	diff	1	2123
14	18	M	PSYC4802-20134	0.98	Block	exp	224	20131014.114427	same	100	same	1	962
14	18	M	PSYC4802-20134	0.98	Block	exp	225	20131014.114430	same	20	same	1	1671
14	18	M	PSYC4802-20134	0.98	Block	exp	226	20131014.114434	same	100	same	1	1524
14	18	M	PSYC4802-20134	0.98	Block	exp	227	20131014.114437	same	20	same	1	634
14	18	M	PSYC4802-20134	0.98	Block	exp	228	20131014.114440	diff	60	diff	1	3147
14	18	M	PSYC4802-20134	0.98	Block	exp	229	20131014.114445	same	60	same	1	769
14	18	M	PSYC4802-20134	0.98	Block	exp	230	20131014.114448	same	100	same	1	681
14	18	M	PSYC4802-20134	0.98	Block	exp	231	20131014.114451	same	100	same	1	1079
14	18	M	PSYC4802-20134	0.98	Block	exp	232	20131014.114454	diff	100	diff	1	2579
14	18	M	PSYC4802-20134	0.98	Block	exp	233	20131014.114458	diff	60	diff	1	2409
14	18	M	PSYC4802-20134	0.98	Block	exp	234	20131014.114503	diff	100	diff	1	1852
14	18	M	PSYC4802-20134	0.98	Block	exp	235	20131014.114507	diff	100	diff	1	1226
14	18	M	PSYC4802-20134	0.98	Block	exp	236	20131014.114510	same	60	same	1	4027
14	18	M	PSYC4802-20134	0.98	Block	exp	237	20131014.114516	same	20	same	1	915
14	18	M	PSYC4802-20134	0.98	Block	exp	238	20131014.114519	diff	100	diff	1	1026
14	18	M	PSYC4802-20134	0.98	Block	exp	239	20131014.114522	same	100	same	1	3119
14	18	M	PSYC4802-20134	0.98	Block	exp	240	20131014.114527	diff	100	diff	1	1326
14	18	M	PSYC4802-20134	0.98	Block	exp	241	20131014.114531	diff	60	diff	1	1226
14	18	M	PSYC4802-20134	0.98	Block	exp	242	20131014.114534	diff	60	diff	1	2222
14	18	M	PSYC4802-20134	0.98	Block	exp	243	20131014.114538	same	100	same	1	1326
14	18	M	PSYC4802-20134	0.98	Block	exp	244	20131014.114541	same	60	same	1	1038
14	18	M	PSYC4802-20134	0.98	Block	exp	245	20131014.114544	same	60	same	1	897
14	18	M	PSYC4802-20134	0.98	Block	exp	246	20131014.114547	same	100	same	1	2356
14	18	M	PSYC4802-20134	0.98	Block	exp	247	20131014.114552	diff	60	diff	1	1149
14	18	M	PSYC4802-20134	0.98	Block	exp	248	20131014.114555	diff	100	same	0	2310
14	18	M	PSYC4802-20134	0.98	Block	exp	249	20131014.114559	diff	60	diff	1	1513
14	18	M	PSYC4802-20134	0.98	Block	exp	250	20131014.114603	diff	20	same	0	1876
14	18	M	PSYC4802-20134	0.98	Block	exp	251	20131014.114610	same	20	same	1	844
14	18	M	PSYC4802-20134	0.98	Block	exp	252	20131014.114613	diff	20	diff	1	1894
14	18	M	PSYC4802-20134	0.98	Block	exp	253	20131014.114617	same	20	same	1	845
14	18	M	PSYC4802-20134	0.98	Block	exp	254	20131014.114620	diff	60	diff	1	1765
14	18	M	PSYC4802-20134	0.98	Block	exp	255	20131014.114623	same	60	same	1	986
14	18	M	PSYC4802-20134	0.98	Block	exp	256	20131014.114626	same	20	same	1	844
14	18	M	PSYC4802-20134	0.98	Block	exp	257	20131014.114629	same	20	same	1	716
14	18	M	PSYC4802-20134	0.98	Block	exp	258	20131014.114632	diff	60	diff	1	1396
14	18	M	PSYC4802-20134	0.98	Block	exp	259	20131014.114635	same	100	same	1	1976
14	18	M	PSYC4802-20134	0.98	Block	exp	260	20131014.114639	diff	60	diff	1	1706
14	18	M	PSYC4802-20134	0.98	Block	exp	261	20131014.114643	diff	100	same	0	1771
14	18	M	PSYC4802-20134	0.98	Block	exp	262	20131014.114647	diff	100	diff	1	2210
14	18	M	PSYC4802-20134	0.98	Block	exp	263	20131014.114651	same	60	same	1	1383
14	18	M	PSYC4802-20134	0.98	Block	exp	264	20131014.114655	diff	60	diff	1	1466
14	18	M	PSYC4802-20134	0.98	Block	exp	265	20131014.114658	diff	20	diff	1	1653
14	18	M	PSYC4802-20134	0.98	Block	exp	266	20131014.114702	same	60	same	1	2246
14	18	M	PSYC4802-20134	0.98	Block	exp	267	20131014.114706	same	60	same	1	1882
14	18	M	PSYC4802-20134	0.98	Block	exp	268	20131014.114710	same	20	same	1	1595
14	18	M	PSYC4802-20134	0.98	Block	exp	269	20131014.114714	same	20	same	1	1759
14	18	M	PSYC4802-20134	0.98	Block	exp	270	20131014.114717	same	20	same	1	693
14	18	M	PSYC4802-20134	0.98	Block	exp	271	20131014.114720	same	60	same	1	2433
14	18	M	PSYC4802-20134	0.98	Block	exp	272	20131014.114725	diff	100	diff	1	1308
14	18	M	PSYC4802-20134	0.98	Block	exp	273	20131014.114728	diff	100	diff	1	1355
14	18	M	PSYC4802-20134	0.98	Block	exp	274	20131014.114731	diff	20	diff	1	1062
14	18	M	PSYC4802-20134	0.98	Block	exp	275	20131014.114734	diff	60	diff	1	2040
14	18	M	PSYC4802-20134	0.98	Block	exp	276	20131014.114739	same	60	same	1	1003
14	18	M	PSYC4802-20134	0.98	Block	exp	277	20131014.114742	same	20	same	1	605
14	18	M	PSYC4802-20134	0.98	Block	exp	278	20131014.114744	diff	20	diff	1	1659
14	18	M	PSYC4802-20134	0.98	Block	exp	279	20131014.114748	diff	60	diff	1	1267
14	18	M	PSYC4802-20134	0.98	Block	exp	280	20131014.114751	same	100	same	1	1009
14	18	M	PSYC4802-20134	0.98	Block	exp	281	20131014.114754	diff	20	diff	1	2075
14	18	M	PSYC4802-20134	0.98	Block	exp	282	20131014.114758	diff	60	diff	1	1495
14	18	M	PSYC4802-20134	0.98	Block	exp	283	20131014.114802	same	100	same	1	1096
14	18	M	PSYC4802-20134	0.98	Block	exp	284	20131014.114805	diff	100	diff	1	892
14	18	M	PSYC4802-20134	0.98	Block	exp	285	20131014.114808	same	20	same	1	815
14	18	M	PSYC4802-20134	0.98	Block	exp	286	20131014.114811	diff	60	diff	1	1764
14	18	M	PSYC4802-20134	0.98	Block	exp	287	20131014.114815	diff	20	diff	1	1560
14	18	M	PSYC4802-20134	0.98	Block	exp	288	20131014.114818	diff	20	diff	1	1501
14	18	M	PSYC4802-20134	0.98	Block	exp	289	20131014.114822	same	60	same	1	874
14	18	M	PSYC4802-20134	0.98	Block	exp	290	20131014.114825	same	20	same	1	1882
14	18	M	PSYC4802-20134	0.98	Block	exp	291	20131014.114829	same	60	same	1	2374
14	18	M	PSYC4802-20134	0.98	Block	exp	292	20131014.114833	same	60	same	1	1032
14	18	M	PSYC4802-20134	0.98	Block	exp	293	20131014.114836	same	20	same	1	705
14	18	M	PSYC4802-20134	0.98	Block	exp	294	20131014.114839	diff	60	diff	1	1003
14	18	M	PSYC4802-20134	0.98	Block	exp	295	20131014.114842	diff	60	diff	1	2462
14	18	M	PSYC4802-20134	0.98	Block	exp	296	20131014.114846	diff	100	diff	1	3698
14	18	M	PSYC4802-20134	0.98	Block	exp	297	20131014.114852	diff	60	diff	1	2005
14	18	M	PSYC4802-20134	0.98	Block	exp	298	20131014.114856	diff	60	diff	1	1788
14	18	M	PSYC4802-20134	0.98	Block	exp	299	20131014.114900	same	60	same	1	997
14	18	M	PSYC4802-20134	0.98	Block	exp	300	20131014.114903	diff	100	diff	1	2257
