Subject	Age	Sex	Experiment	Version	Block	TrialType	Trial	Timestamp	SameDiff	Rotation	Response	Acc	RT
132	20	M	PSYC4802-20134	0.98	Block	practice	1	20131030.115331	same	60	same	1	17174
132	20	M	PSYC4802-20134	0.98	Block	practice	2	20131030.115350	diff	20	diff	1	12968
132	20	M	PSYC4802-20134	0.98	Block	practice	3	20131030.115405	diff	20	diff	1	4852
132	20	M	PSYC4802-20134	0.98	Block	practice	4	20131030.115412	same	20	same	1	2461
132	20	M	PSYC4802-20134	0.98	Block	practice	5	20131030.115416	same	100	same	1	30961
132	20	M	PSYC4802-20134	0.98	Block	practice	6	20131030.115449	diff	60	diff	1	1531
132	20	M	PSYC4802-20134	0.98	Block	practice	7	20131030.115453	same	20	same	1	1354
132	20	M	PSYC4802-20134	0.98	Block	practice	8	20131030.115456	diff	100	diff	1	3136
132	20	M	PSYC4802-20134	0.98	Block	practice	9	20131030.115502	same	20	same	1	2076
132	20	M	PSYC4802-20134	0.98	Block	practice	10	20131030.115506	diff	100	diff	1	2298
132	20	M	PSYC4802-20134	0.98	Block	practice	11	20131030.115510	same	60	same	1	3200
132	20	M	PSYC4802-20134	0.98	Block	practice	12	20131030.115515	diff	100	diff	1	1442
132	20	M	PSYC4802-20134	0.98	Block	practice	13	20131030.115519	diff	60	diff	1	2485
132	20	M	PSYC4802-20134	0.98	Block	practice	14	20131030.115523	same	100	same	1	2157
132	20	M	PSYC4802-20134	0.98	Block	practice	15	20131030.115527	same	20	same	1	1659
132	20	M	PSYC4802-20134	0.98	Block	practice	16	20131030.115531	diff	60	diff	1	2468
132	20	M	PSYC4802-20134	0.98	Block	practice	17	20131030.115536	diff	100	diff	1	1525
132	20	M	PSYC4802-20134	0.98	Block	practice	18	20131030.115539	diff	60	diff	1	1425
132	20	M	PSYC4802-20134	0.98	Block	practice	19	20131030.115542	same	60	same	1	1425
132	20	M	PSYC4802-20134	0.98	Block	practice	20	20131030.115546	diff	20	diff	1	2052
132	20	M	PSYC4802-20134	0.98	Block	practice	21	20131030.115550	same	100	same	1	1542
132	20	M	PSYC4802-20134	0.98	Block	practice	22	20131030.115554	same	100	same	1	2989
132	20	M	PSYC4802-20134	0.98	Block	practice	23	20131030.115559	diff	20	diff	1	1097
132	20	M	PSYC4802-20134	0.98	Block	practice	24	20131030.115602	same	20	same	1	1044
132	20	M	PSYC4802-20134	0.98	Block	practice	25	20131030.115605	same	60	same	1	1349
132	20	M	PSYC4802-20134	0.98	Block	practice	26	20131030.115608	same	60	same	1	1923
132	20	M	PSYC4802-20134	0.98	Block	practice	27	20131030.115612	diff	100	diff	1	3546
132	20	M	PSYC4802-20134	0.98	Block	practice	28	20131030.115618	same	100	same	1	1150
132	20	M	PSYC4802-20134	0.98	Block	practice	29	20131030.115621	diff	60	diff	1	2989
132	20	M	PSYC4802-20134	0.98	Block	practice	30	20131030.115626	diff	20	diff	1	2819
132	20	M	PSYC4802-20134	0.98	Block	exp	31	20131030.115631	diff	60	diff	1	5345
132	20	M	PSYC4802-20134	0.98	Block	exp	32	20131030.115638	same	100	same	1	1917
132	20	M	PSYC4802-20134	0.98	Block	exp	33	20131030.115642	same	100	same	1	2069
132	20	M	PSYC4802-20134	0.98	Block	exp	34	20131030.115646	same	60	same	1	1823
132	20	M	PSYC4802-20134	0.98	Block	exp	35	20131030.115650	same	60	same	1	1624
132	20	M	PSYC4802-20134	0.98	Block	exp	36	20131030.115654	same	100	same	1	1062
132	20	M	PSYC4802-20134	0.98	Block	exp	37	20131030.115657	same	20	same	1	1753
132	20	M	PSYC4802-20134	0.98	Block	exp	38	20131030.115701	same	60	same	1	1618
132	20	M	PSYC4802-20134	0.98	Block	exp	39	20131030.115704	same	60	same	1	3376
132	20	M	PSYC4802-20134	0.98	Block	exp	40	20131030.115710	same	20	same	1	1290
132	20	M	PSYC4802-20134	0.98	Block	exp	41	20131030.115713	diff	60	diff	1	1841
132	20	M	PSYC4802-20134	0.98	Block	exp	42	20131030.115717	same	20	same	1	1120
132	20	M	PSYC4802-20134	0.98	Block	exp	43	20131030.115720	diff	100	diff	1	1296
132	20	M	PSYC4802-20134	0.98	Block	exp	44	20131030.115723	same	100	same	1	1987
132	20	M	PSYC4802-20134	0.98	Block	exp	45	20131030.115727	diff	20	diff	1	3551
132	20	M	PSYC4802-20134	0.98	Block	exp	46	20131030.115733	same	100	same	1	3253
132	20	M	PSYC4802-20134	0.98	Block	exp	47	20131030.115738	same	60	same	1	1408
132	20	M	PSYC4802-20134	0.98	Block	exp	48	20131030.115742	same	20	same	1	1408
132	20	M	PSYC4802-20134	0.98	Block	exp	49	20131030.115745	same	60	same	1	1946
132	20	M	PSYC4802-20134	0.98	Block	exp	50	20131030.115749	diff	100	diff	1	1894
132	20	M	PSYC4802-20134	0.98	Block	exp	51	20131030.115806	diff	100	diff	1	2895
132	20	M	PSYC4802-20134	0.98	Block	exp	52	20131030.115811	diff	60	diff	1	1964
132	20	M	PSYC4802-20134	0.98	Block	exp	53	20131030.115815	diff	100	diff	1	2702
132	20	M	PSYC4802-20134	0.98	Block	exp	54	20131030.115820	diff	60	diff	1	974
132	20	M	PSYC4802-20134	0.98	Block	exp	55	20131030.115823	same	100	same	1	3018
132	20	M	PSYC4802-20134	0.98	Block	exp	56	20131030.115828	same	60	same	1	2268
132	20	M	PSYC4802-20134	0.98	Block	exp	57	20131030.115832	diff	60	diff	1	2076
132	20	M	PSYC4802-20134	0.98	Block	exp	58	20131030.115836	diff	100	diff	1	2363
132	20	M	PSYC4802-20134	0.98	Block	exp	59	20131030.115841	diff	100	diff	1	2005
132	20	M	PSYC4802-20134	0.98	Block	exp	60	20131030.115845	diff	20	diff	1	1613
132	20	M	PSYC4802-20134	0.98	Block	exp	61	20131030.115848	diff	20	diff	1	2333
132	20	M	PSYC4802-20134	0.98	Block	exp	62	20131030.115853	diff	60	diff	1	1383
132	20	M	PSYC4802-20134	0.98	Block	exp	63	20131030.115856	same	60	same	1	2122
132	20	M	PSYC4802-20134	0.98	Block	exp	64	20131030.115900	diff	20	diff	1	1729
132	20	M	PSYC4802-20134	0.98	Block	exp	65	20131030.115904	diff	100	diff	1	2667
132	20	M	PSYC4802-20134	0.98	Block	exp	66	20131030.115909	diff	100	diff	1	2632
132	20	M	PSYC4802-20134	0.98	Block	exp	67	20131030.115913	diff	60	diff	1	1226
132	20	M	PSYC4802-20134	0.98	Block	exp	68	20131030.115917	diff	100	diff	1	1079
132	20	M	PSYC4802-20134	0.98	Block	exp	69	20131030.115920	same	60	same	1	2081
132	20	M	PSYC4802-20134	0.98	Block	exp	70	20131030.115924	diff	100	diff	1	1987
132	20	M	PSYC4802-20134	0.98	Block	exp	71	20131030.115928	diff	20	diff	1	2339
132	20	M	PSYC4802-20134	0.98	Block	exp	72	20131030.115932	same	100	same	1	1003
132	20	M	PSYC4802-20134	0.98	Block	exp	73	20131030.115935	same	20	diff	0	1636
132	20	M	PSYC4802-20134	0.98	Block	exp	74	20131030.115939	same	20	same	1	1900
132	20	M	PSYC4802-20134	0.98	Block	exp	75	20131030.115943	diff	100	diff	1	2187
132	20	M	PSYC4802-20134	0.98	Block	exp	76	20131030.115947	same	100	same	1	2726
132	20	M	PSYC4802-20134	0.98	Block	exp	77	20131030.115952	diff	20	diff	1	4437
132	20	M	PSYC4802-20134	0.98	Block	exp	78	20131030.115958	same	60	same	1	1425
132	20	M	PSYC4802-20134	0.98	Block	exp	79	20131030.120002	diff	60	diff	1	2327
132	20	M	PSYC4802-20134	0.98	Block	exp	80	20131030.120006	diff	100	diff	1	1788
132	20	M	PSYC4802-20134	0.98	Block	exp	81	20131030.120010	same	60	same	1	1788
132	20	M	PSYC4802-20134	0.98	Block	exp	82	20131030.120014	same	60	same	1	2433
132	20	M	PSYC4802-20134	0.98	Block	exp	83	20131030.120018	diff	20	diff	1	2439
132	20	M	PSYC4802-20134	0.98	Block	exp	84	20131030.120023	diff	60	diff	1	1273
132	20	M	PSYC4802-20134	0.98	Block	exp	85	20131030.120026	diff	20	diff	1	1706
132	20	M	PSYC4802-20134	0.98	Block	exp	86	20131030.120030	same	20	same	1	821
132	20	M	PSYC4802-20134	0.98	Block	exp	87	20131030.120033	same	60	same	1	1156
132	20	M	PSYC4802-20134	0.98	Block	exp	88	20131030.120036	diff	100	diff	1	1361
132	20	M	PSYC4802-20134	0.98	Block	exp	89	20131030.120039	same	60	same	1	1272
132	20	M	PSYC4802-20134	0.98	Block	exp	90	20131030.120042	same	100	same	1	2297
132	20	M	PSYC4802-20134	0.98	Block	exp	91	20131030.120047	diff	60	diff	1	1806
132	20	M	PSYC4802-20134	0.98	Block	exp	92	20131030.120051	diff	20	diff	1	3018
132	20	M	PSYC4802-20134	0.98	Block	exp	93	20131030.120056	same	100	same	1	2093
132	20	M	PSYC4802-20134	0.98	Block	exp	94	20131030.120100	same	60	same	1	1091
132	20	M	PSYC4802-20134	0.98	Block	exp	95	20131030.120103	same	60	same	1	1372
132	20	M	PSYC4802-20134	0.98	Block	exp	96	20131030.120106	diff	60	diff	1	1261
132	20	M	PSYC4802-20134	0.98	Block	exp	97	20131030.120110	same	60	same	1	2855
132	20	M	PSYC4802-20134	0.98	Block	exp	98	20131030.120114	diff	100	diff	1	1237
132	20	M	PSYC4802-20134	0.98	Block	exp	99	20131030.120118	same	100	same	1	1086
132	20	M	PSYC4802-20134	0.98	Block	exp	100	20131030.120121	same	20	same	1	1360
132	20	M	PSYC4802-20134	0.98	Block	exp	101	20131030.120140	diff	20	diff	1	2210
132	20	M	PSYC4802-20134	0.98	Block	exp	102	20131030.120144	diff	20	diff	1	909
132	20	M	PSYC4802-20134	0.98	Block	exp	103	20131030.120147	same	60	same	1	1566
132	20	M	PSYC4802-20134	0.98	Block	exp	104	20131030.120151	diff	100	diff	1	2029
132	20	M	PSYC4802-20134	0.98	Block	exp	105	20131030.120155	diff	20	diff	1	763
132	20	M	PSYC4802-20134	0.98	Block	exp	106	20131030.120157	same	100	diff	0	1255
132	20	M	PSYC4802-20134	0.98	Block	exp	107	20131030.120201	same	20	same	1	1027
132	20	M	PSYC4802-20134	0.98	Block	exp	108	20131030.120204	diff	60	diff	1	3874
132	20	M	PSYC4802-20134	0.98	Block	exp	109	20131030.120210	same	20	same	1	974
132	20	M	PSYC4802-20134	0.98	Block	exp	110	20131030.120213	diff	20	same	0	1255
132	20	M	PSYC4802-20134	0.98	Block	exp	111	20131030.120216	diff	100	diff	1	4249
132	20	M	PSYC4802-20134	0.98	Block	exp	112	20131030.120222	same	100	same	1	1853
132	20	M	PSYC4802-20134	0.98	Block	exp	113	20131030.120226	diff	100	diff	1	1214
132	20	M	PSYC4802-20134	0.98	Block	exp	114	20131030.120229	diff	20	diff	1	3235
132	20	M	PSYC4802-20134	0.98	Block	exp	115	20131030.120235	diff	60	diff	1	1648
132	20	M	PSYC4802-20134	0.98	Block	exp	116	20131030.120238	same	20	same	1	1846
132	20	M	PSYC4802-20134	0.98	Block	exp	117	20131030.120242	same	60	same	1	2045
132	20	M	PSYC4802-20134	0.98	Block	exp	118	20131030.120246	diff	20	diff	1	2351
132	20	M	PSYC4802-20134	0.98	Block	exp	119	20131030.120251	same	60	same	1	1993
132	20	M	PSYC4802-20134	0.98	Block	exp	120	20131030.120255	diff	20	diff	1	1993
132	20	M	PSYC4802-20134	0.98	Block	exp	121	20131030.120259	diff	100	diff	1	1378
132	20	M	PSYC4802-20134	0.98	Block	exp	122	20131030.120302	same	60	diff	0	3599
132	20	M	PSYC4802-20134	0.98	Block	exp	123	20131030.120308	diff	60	diff	1	2251
132	20	M	PSYC4802-20134	0.98	Block	exp	124	20131030.120312	diff	100	diff	1	1665
132	20	M	PSYC4802-20134	0.98	Block	exp	125	20131030.120316	diff	100	diff	1	2421
132	20	M	PSYC4802-20134	0.98	Block	exp	126	20131030.120320	diff	60	diff	1	3581
132	20	M	PSYC4802-20134	0.98	Block	exp	127	20131030.120326	same	100	same	1	857
132	20	M	PSYC4802-20134	0.98	Block	exp	128	20131030.120328	diff	20	diff	1	710
132	20	M	PSYC4802-20134	0.98	Block	exp	129	20131030.120331	same	20	same	1	558
132	20	M	PSYC4802-20134	0.98	Block	exp	130	20131030.120334	same	20	same	1	616
132	20	M	PSYC4802-20134	0.98	Block	exp	131	20131030.120336	diff	100	diff	1	816
132	20	M	PSYC4802-20134	0.98	Block	exp	132	20131030.120339	same	100	same	1	2439
132	20	M	PSYC4802-20134	0.98	Block	exp	133	20131030.120344	same	60	same	1	1853
132	20	M	PSYC4802-20134	0.98	Block	exp	134	20131030.120347	same	20	same	1	681
132	20	M	PSYC4802-20134	0.98	Block	exp	135	20131030.120350	diff	20	same	0	979
132	20	M	PSYC4802-20134	0.98	Block	exp	136	20131030.120353	same	60	same	1	1296
132	20	M	PSYC4802-20134	0.98	Block	exp	137	20131030.120356	same	60	same	1	1419
132	20	M	PSYC4802-20134	0.98	Block	exp	138	20131030.120400	same	100	same	1	1577
132	20	M	PSYC4802-20134	0.98	Block	exp	139	20131030.120403	diff	60	diff	1	2087
132	20	M	PSYC4802-20134	0.98	Block	exp	140	20131030.120408	same	100	same	1	1431
132	20	M	PSYC4802-20134	0.98	Block	exp	141	20131030.120411	diff	60	diff	1	1402
132	20	M	PSYC4802-20134	0.98	Block	exp	142	20131030.120414	diff	60	diff	1	1706
132	20	M	PSYC4802-20134	0.98	Block	exp	143	20131030.120418	diff	20	diff	1	1243
132	20	M	PSYC4802-20134	0.98	Block	exp	144	20131030.120421	diff	60	diff	1	1554
132	20	M	PSYC4802-20134	0.98	Block	exp	145	20131030.120425	same	20	same	1	1184
132	20	M	PSYC4802-20134	0.98	Block	exp	146	20131030.120428	diff	100	diff	1	1612
132	20	M	PSYC4802-20134	0.98	Block	exp	147	20131030.120432	diff	20	diff	1	2192
132	20	M	PSYC4802-20134	0.98	Block	exp	148	20131030.120436	diff	20	diff	1	1414
132	20	M	PSYC4802-20134	0.98	Block	exp	149	20131030.120439	same	20	same	1	1126
132	20	M	PSYC4802-20134	0.98	Block	exp	150	20131030.120442	same	100	same	1	1677
132	20	M	PSYC4802-20134	0.98	Block	exp	151	20131030.120458	same	60	diff	0	2152
132	20	M	PSYC4802-20134	0.98	Block	exp	152	20131030.120502	same	100	same	1	1654
132	20	M	PSYC4802-20134	0.98	Block	exp	153	20131030.120506	same	60	same	1	1068
132	20	M	PSYC4802-20134	0.98	Block	exp	154	20131030.120509	same	60	same	1	2409
132	20	M	PSYC4802-20134	0.98	Block	exp	155	20131030.120514	same	100	same	1	1688
132	20	M	PSYC4802-20134	0.98	Block	exp	156	20131030.120517	same	60	same	1	1694
132	20	M	PSYC4802-20134	0.98	Block	exp	157	20131030.120521	same	60	same	1	962
132	20	M	PSYC4802-20134	0.98	Block	exp	158	20131030.120524	diff	100	diff	1	1343
132	20	M	PSYC4802-20134	0.98	Block	exp	159	20131030.120527	diff	20	diff	1	2010
132	20	M	PSYC4802-20134	0.98	Block	exp	160	20131030.120531	diff	60	diff	1	903
132	20	M	PSYC4802-20134	0.98	Block	exp	161	20131030.120534	same	100	diff	0	1273
132	20	M	PSYC4802-20134	0.98	Block	exp	162	20131030.120538	same	100	same	1	2104
132	20	M	PSYC4802-20134	0.98	Block	exp	163	20131030.120542	diff	20	diff	1	1366
132	20	M	PSYC4802-20134	0.98	Block	exp	164	20131030.120545	same	100	same	1	1396
132	20	M	PSYC4802-20134	0.98	Block	exp	165	20131030.120548	same	20	same	1	780
132	20	M	PSYC4802-20134	0.98	Block	exp	166	20131030.120551	same	60	same	1	716
132	20	M	PSYC4802-20134	0.98	Block	exp	167	20131030.120554	diff	20	diff	1	1507
132	20	M	PSYC4802-20134	0.98	Block	exp	168	20131030.120558	diff	100	diff	1	1431
132	20	M	PSYC4802-20134	0.98	Block	exp	169	20131030.120601	same	60	same	1	1618
132	20	M	PSYC4802-20134	0.98	Block	exp	170	20131030.120605	same	20	same	1	1941
132	20	M	PSYC4802-20134	0.98	Block	exp	171	20131030.120609	same	60	same	1	1431
132	20	M	PSYC4802-20134	0.98	Block	exp	172	20131030.120612	diff	100	diff	1	1343
132	20	M	PSYC4802-20134	0.98	Block	exp	173	20131030.120615	same	100	same	1	851
132	20	M	PSYC4802-20134	0.98	Block	exp	174	20131030.120618	same	60	same	1	1249
132	20	M	PSYC4802-20134	0.98	Block	exp	175	20131030.120621	same	20	same	1	1067
132	20	M	PSYC4802-20134	0.98	Block	exp	176	20131030.120624	same	60	same	1	1302
132	20	M	PSYC4802-20134	0.98	Block	exp	177	20131030.120628	same	20	same	1	815
132	20	M	PSYC4802-20134	0.98	Block	exp	178	20131030.120631	same	100	same	1	1524
132	20	M	PSYC4802-20134	0.98	Block	exp	179	20131030.120634	same	20	same	1	2286
132	20	M	PSYC4802-20134	0.98	Block	exp	180	20131030.120638	diff	60	diff	1	1454
132	20	M	PSYC4802-20134	0.98	Block	exp	181	20131030.120642	same	100	same	1	1032
132	20	M	PSYC4802-20134	0.98	Block	exp	182	20131030.120645	diff	60	diff	1	1577
132	20	M	PSYC4802-20134	0.98	Block	exp	183	20131030.120648	same	60	same	1	681
132	20	M	PSYC4802-20134	0.98	Block	exp	184	20131030.120651	diff	100	diff	1	1893
132	20	M	PSYC4802-20134	0.98	Block	exp	185	20131030.120655	diff	100	diff	1	1314
132	20	M	PSYC4802-20134	0.98	Block	exp	186	20131030.120658	same	60	same	1	704
132	20	M	PSYC4802-20134	0.98	Block	exp	187	20131030.120701	diff	60	diff	1	1238
132	20	M	PSYC4802-20134	0.98	Block	exp	188	20131030.120704	same	20	same	1	1150
132	20	M	PSYC4802-20134	0.98	Block	exp	189	20131030.120707	diff	60	diff	1	1120
132	20	M	PSYC4802-20134	0.98	Block	exp	190	20131030.120710	diff	60	diff	1	1056
132	20	M	PSYC4802-20134	0.98	Block	exp	191	20131030.120714	diff	100	diff	1	1062
132	20	M	PSYC4802-20134	0.98	Block	exp	192	20131030.120717	diff	60	diff	1	1653
132	20	M	PSYC4802-20134	0.98	Block	exp	193	20131030.120720	same	100	same	1	1806
132	20	M	PSYC4802-20134	0.98	Block	exp	194	20131030.120724	diff	100	diff	1	1219
132	20	M	PSYC4802-20134	0.98	Block	exp	195	20131030.120727	same	20	same	1	1085
132	20	M	PSYC4802-20134	0.98	Block	exp	196	20131030.120730	diff	60	diff	1	1179
132	20	M	PSYC4802-20134	0.98	Block	exp	197	20131030.120734	diff	100	diff	1	1050
132	20	M	PSYC4802-20134	0.98	Block	exp	198	20131030.120737	same	100	same	1	892
132	20	M	PSYC4802-20134	0.98	Block	exp	199	20131030.120740	diff	20	diff	1	1994
132	20	M	PSYC4802-20134	0.98	Block	exp	200	20131030.120744	same	20	same	1	839
132	20	M	PSYC4802-20134	0.98	Block	exp	201	20131030.120806	same	20	same	1	921
132	20	M	PSYC4802-20134	0.98	Block	exp	202	20131030.120809	diff	20	diff	1	1390
132	20	M	PSYC4802-20134	0.98	Block	exp	203	20131030.120813	diff	100	diff	1	1132
132	20	M	PSYC4802-20134	0.98	Block	exp	204	20131030.120816	same	20	same	1	681
132	20	M	PSYC4802-20134	0.98	Block	exp	205	20131030.120819	same	20	same	1	950
132	20	M	PSYC4802-20134	0.98	Block	exp	206	20131030.120822	diff	60	diff	1	869
132	20	M	PSYC4802-20134	0.98	Block	exp	207	20131030.120824	same	20	same	1	727
132	20	M	PSYC4802-20134	0.98	Block	exp	208	20131030.120827	diff	100	diff	1	1958
132	20	M	PSYC4802-20134	0.98	Block	exp	209	20131030.120831	diff	20	diff	1	1975
132	20	M	PSYC4802-20134	0.98	Block	exp	210	20131030.120835	diff	60	diff	1	1249
132	20	M	PSYC4802-20134	0.98	Block	exp	211	20131030.120838	same	20	same	1	822
132	20	M	PSYC4802-20134	0.98	Block	exp	212	20131030.120841	same	100	same	1	833
132	20	M	PSYC4802-20134	0.98	Block	exp	213	20131030.120844	same	100	same	1	710
132	20	M	PSYC4802-20134	0.98	Block	exp	214	20131030.120847	diff	100	diff	1	798
132	20	M	PSYC4802-20134	0.98	Block	exp	215	20131030.120850	diff	100	diff	1	1103
132	20	M	PSYC4802-20134	0.98	Block	exp	216	20131030.120853	same	60	same	1	599
132	20	M	PSYC4802-20134	0.98	Block	exp	217	20131030.120855	same	100	same	1	1707
132	20	M	PSYC4802-20134	0.98	Block	exp	218	20131030.120859	diff	100	diff	1	1062
132	20	M	PSYC4802-20134	0.98	Block	exp	219	20131030.120902	diff	60	diff	1	945
132	20	M	PSYC4802-20134	0.98	Block	exp	220	20131030.120905	diff	60	diff	1	762
132	20	M	PSYC4802-20134	0.98	Block	exp	221	20131030.120908	same	100	same	1	2257
132	20	M	PSYC4802-20134	0.98	Block	exp	222	20131030.120912	same	20	same	1	1712
132	20	M	PSYC4802-20134	0.98	Block	exp	223	20131030.120916	diff	20	diff	1	722
132	20	M	PSYC4802-20134	0.98	Block	exp	224	20131030.120918	diff	60	diff	1	845
132	20	M	PSYC4802-20134	0.98	Block	exp	225	20131030.120921	diff	20	diff	1	827
132	20	M	PSYC4802-20134	0.98	Block	exp	226	20131030.120924	diff	20	diff	1	1372
132	20	M	PSYC4802-20134	0.98	Block	exp	227	20131030.120928	same	20	same	1	804
132	20	M	PSYC4802-20134	0.98	Block	exp	228	20131030.120930	same	20	diff	0	809
132	20	M	PSYC4802-20134	0.98	Block	exp	229	20131030.120933	diff	100	diff	1	1138
132	20	M	PSYC4802-20134	0.98	Block	exp	230	20131030.120936	same	20	same	1	1419
132	20	M	PSYC4802-20134	0.98	Block	exp	231	20131030.120940	diff	20	diff	1	1050
132	20	M	PSYC4802-20134	0.98	Block	exp	232	20131030.120943	diff	100	diff	1	1009
132	20	M	PSYC4802-20134	0.98	Block	exp	233	20131030.120946	same	60	same	1	992
132	20	M	PSYC4802-20134	0.98	Block	exp	234	20131030.120949	same	100	same	1	1285
132	20	M	PSYC4802-20134	0.98	Block	exp	235	20131030.120952	diff	20	diff	1	1425
132	20	M	PSYC4802-20134	0.98	Block	exp	236	20131030.120956	diff	20	diff	1	1273
132	20	M	PSYC4802-20134	0.98	Block	exp	237	20131030.120959	same	60	same	1	1074
132	20	M	PSYC4802-20134	0.98	Block	exp	238	20131030.121002	same	20	same	1	769
132	20	M	PSYC4802-20134	0.98	Block	exp	239	20131030.121005	diff	20	diff	1	1402
132	20	M	PSYC4802-20134	0.98	Block	exp	240	20131030.121008	diff	100	same	0	1073
132	20	M	PSYC4802-20134	0.98	Block	exp	241	20131030.121011	same	20	same	1	956
132	20	M	PSYC4802-20134	0.98	Block	exp	242	20131030.121014	diff	20	diff	1	815
132	20	M	PSYC4802-20134	0.98	Block	exp	243	20131030.121017	diff	20	diff	1	1026
132	20	M	PSYC4802-20134	0.98	Block	exp	244	20131030.121020	diff	60	diff	1	915
132	20	M	PSYC4802-20134	0.98	Block	exp	245	20131030.121023	same	20	same	1	1390
132	20	M	PSYC4802-20134	0.98	Block	exp	246	20131030.121027	diff	60	diff	1	1636
132	20	M	PSYC4802-20134	0.98	Block	exp	247	20131030.121030	diff	20	diff	1	1841
132	20	M	PSYC4802-20134	0.98	Block	exp	248	20131030.121034	same	20	same	1	921
132	20	M	PSYC4802-20134	0.98	Block	exp	249	20131030.121037	diff	20	diff	1	1320
132	20	M	PSYC4802-20134	0.98	Block	exp	250	20131030.121040	same	60	diff	0	1155
132	20	M	PSYC4802-20134	0.98	Block	exp	251	20131030.121100	same	60	same	1	1946
132	20	M	PSYC4802-20134	0.98	Block	exp	252	20131030.121104	same	100	same	1	1214
132	20	M	PSYC4802-20134	0.98	Block	exp	253	20131030.121107	same	20	same	1	815
132	20	M	PSYC4802-20134	0.98	Block	exp	254	20131030.121110	diff	60	diff	1	857
132	20	M	PSYC4802-20134	0.98	Block	exp	255	20131030.121113	same	20	same	1	839
132	20	M	PSYC4802-20134	0.98	Block	exp	256	20131030.121116	same	100	same	1	1993
132	20	M	PSYC4802-20134	0.98	Block	exp	257	20131030.121120	same	60	same	1	827
132	20	M	PSYC4802-20134	0.98	Block	exp	258	20131030.121123	diff	20	diff	1	1414
132	20	M	PSYC4802-20134	0.98	Block	exp	259	20131030.121126	diff	60	diff	1	1208
132	20	M	PSYC4802-20134	0.98	Block	exp	260	20131030.121129	same	100	same	1	822
132	20	M	PSYC4802-20134	0.98	Block	exp	261	20131030.121132	same	60	same	1	1255
132	20	M	PSYC4802-20134	0.98	Block	exp	262	20131030.121135	diff	20	diff	1	728
132	20	M	PSYC4802-20134	0.98	Block	exp	263	20131030.121138	same	100	same	1	1401
132	20	M	PSYC4802-20134	0.98	Block	exp	264	20131030.121141	diff	20	diff	1	1243
132	20	M	PSYC4802-20134	0.98	Block	exp	265	20131030.121145	same	100	same	1	892
132	20	M	PSYC4802-20134	0.98	Block	exp	266	20131030.121148	diff	100	diff	1	2415
132	20	M	PSYC4802-20134	0.98	Block	exp	267	20131030.121152	diff	20	diff	1	1425
132	20	M	PSYC4802-20134	0.98	Block	exp	268	20131030.121156	diff	20	diff	1	2240
132	20	M	PSYC4802-20134	0.98	Block	exp	269	20131030.121200	diff	100	diff	1	1308
132	20	M	PSYC4802-20134	0.98	Block	exp	270	20131030.121203	diff	60	diff	1	1168
132	20	M	PSYC4802-20134	0.98	Block	exp	271	20131030.121206	same	60	same	1	932
132	20	M	PSYC4802-20134	0.98	Block	exp	272	20131030.121209	diff	60	same	0	1144
132	20	M	PSYC4802-20134	0.98	Block	exp	273	20131030.121212	same	100	same	1	950
132	20	M	PSYC4802-20134	0.98	Block	exp	274	20131030.121215	diff	60	diff	1	1589
132	20	M	PSYC4802-20134	0.98	Block	exp	275	20131030.121219	same	100	same	1	1320
132	20	M	PSYC4802-20134	0.98	Block	exp	276	20131030.121222	diff	60	diff	1	1144
132	20	M	PSYC4802-20134	0.98	Block	exp	277	20131030.121225	diff	60	diff	1	792
132	20	M	PSYC4802-20134	0.98	Block	exp	278	20131030.121228	same	20	same	1	722
132	20	M	PSYC4802-20134	0.98	Block	exp	279	20131030.121231	same	100	same	1	2479
132	20	M	PSYC4802-20134	0.98	Block	exp	280	20131030.121236	diff	60	diff	1	1038
132	20	M	PSYC4802-20134	0.98	Block	exp	281	20131030.121239	same	100	same	1	1313
132	20	M	PSYC4802-20134	0.98	Block	exp	282	20131030.121242	diff	20	diff	1	944
132	20	M	PSYC4802-20134	0.98	Block	exp	283	20131030.121245	diff	100	diff	1	938
132	20	M	PSYC4802-20134	0.98	Block	exp	284	20131030.121248	diff	60	diff	1	2562
132	20	M	PSYC4802-20134	0.98	Block	exp	285	20131030.121252	same	20	same	1	716
132	20	M	PSYC4802-20134	0.98	Block	exp	286	20131030.121255	diff	100	diff	1	1267
132	20	M	PSYC4802-20134	0.98	Block	exp	287	20131030.121258	same	20	same	1	604
132	20	M	PSYC4802-20134	0.98	Block	exp	288	20131030.121301	same	20	same	1	1635
132	20	M	PSYC4802-20134	0.98	Block	exp	289	20131030.121305	diff	60	diff	1	1736
132	20	M	PSYC4802-20134	0.98	Block	exp	290	20131030.121308	same	100	same	1	2374
132	20	M	PSYC4802-20134	0.98	Block	exp	291	20131030.121313	same	100	diff	0	1507
132	20	M	PSYC4802-20134	0.98	Block	exp	292	20131030.121316	same	100	same	1	1114
132	20	M	PSYC4802-20134	0.98	Block	exp	293	20131030.121320	same	20	same	1	669
132	20	M	PSYC4802-20134	0.98	Block	exp	294	20131030.121322	same	20	same	1	827
132	20	M	PSYC4802-20134	0.98	Block	exp	295	20131030.121325	diff	100	diff	1	1073
132	20	M	PSYC4802-20134	0.98	Block	exp	296	20131030.121328	diff	60	diff	1	1489
132	20	M	PSYC4802-20134	0.98	Block	exp	297	20131030.121332	diff	20	diff	1	1460
132	20	M	PSYC4802-20134	0.98	Block	exp	298	20131030.121335	diff	100	diff	1	1103
132	20	M	PSYC4802-20134	0.98	Block	exp	299	20131030.121338	diff	100	diff	1	1724
132	20	M	PSYC4802-20134	0.98	Block	exp	300	20131030.121342	same	60	same	1	705
