Experimenter	Subject	Age	Sex	Experiment	Version	Block	TrialType	Trial	Timestamp	SameDiff	Rotation	Response	Acc	RT
JM	39	18	m	PSYC4802-20142	1.0	Block	practice	1	20140423.104855	same	20	same	1	21792
JM	39	18	m	PSYC4802-20142	1.0	Block	practice	2	20140423.104920	diff	20	diff	1	21457
JM	39	18	m	PSYC4802-20142	1.0	Block	practice	3	20140423.104943	same	60	diff	0	7009
JM	39	18	m	PSYC4802-20142	1.0	Block	practice	4	20140423.104952	diff	100	diff	1	14251
JM	39	18	m	PSYC4802-20142	1.0	Block	practice	5	20140423.105008	diff	100	same	0	10108
JM	39	18	m	PSYC4802-20142	1.0	Block	practice	6	20140423.105020	diff	100	diff	1	12575
JM	39	18	m	PSYC4802-20142	1.0	Block	practice	7	20140423.105035	diff	20	diff	1	9581
JM	39	18	m	PSYC4802-20142	1.0	Block	practice	8	20140423.105047	same	20	same	1	5104
JM	39	18	m	PSYC4802-20142	1.0	Block	practice	9	20140423.105054	diff	20	diff	1	6552
JM	39	18	m	PSYC4802-20142	1.0	Block	practice	10	20140423.105102	diff	100	diff	1	3763
JM	39	18	m	PSYC4802-20142	1.0	Block	practice	11	20140423.105108	same	20	diff	0	5134
JM	39	18	m	PSYC4802-20142	1.0	Block	practice	12	20140423.105115	diff	20	diff	1	6605
JM	39	18	m	PSYC4802-20142	1.0	Block	practice	13	20140423.105124	same	100	same	1	4765
JM	39	18	m	PSYC4802-20142	1.0	Block	practice	14	20140423.105131	diff	60	diff	1	9341
JM	39	18	m	PSYC4802-20142	1.0	Block	practice	15	20140423.105142	same	100	same	1	10852
JM	39	18	m	PSYC4802-20142	1.0	Block	practice	16	20140423.105155	diff	20	diff	1	5568
JM	39	18	m	PSYC4802-20142	1.0	Block	practice	17	20140423.105202	same	60	same	1	9523
JM	39	18	m	PSYC4802-20142	1.0	Block	practice	18	20140423.105214	diff	60	same	0	6740
JM	39	18	m	PSYC4802-20142	1.0	Block	practice	19	20140423.105223	diff	100	diff	1	11673
JM	39	18	m	PSYC4802-20142	1.0	Block	practice	20	20140423.105236	diff	60	diff	1	6845
JM	39	18	m	PSYC4802-20142	1.0	Block	practice	21	20140423.105245	same	60	diff	0	6775
JM	39	18	m	PSYC4802-20142	1.0	Block	practice	22	20140423.105254	same	100	diff	0	7056
JM	39	18	m	PSYC4802-20142	1.0	Block	practice	23	20140423.105303	diff	60	diff	1	6938
JM	39	18	m	PSYC4802-20142	1.0	Block	practice	24	20140423.105312	same	20	same	1	5773
JM	39	18	m	PSYC4802-20142	1.0	Block	practice	25	20140423.105320	diff	60	diff	1	5784
JM	39	18	m	PSYC4802-20142	1.0	Block	practice	26	20140423.105328	same	60	same	1	5409
JM	39	18	m	PSYC4802-20142	1.0	Block	practice	27	20140423.105335	same	100	diff	0	2315
JM	39	18	m	PSYC4802-20142	1.0	Block	practice	28	20140423.105339	same	100	diff	0	4408
JM	39	18	m	PSYC4802-20142	1.0	Block	practice	29	20140423.105346	same	20	same	1	3956
JM	39	18	m	PSYC4802-20142	1.0	Block	practice	30	20140423.105352	same	60	same	1	4917
JM	39	18	m	PSYC4802-20142	1.0	Block	exp	31	20140423.105359	diff	20	diff	1	13402
JM	39	18	m	PSYC4802-20142	1.0	Block	exp	32	20140423.105414	same	20	same	1	3224
JM	39	18	m	PSYC4802-20142	1.0	Block	exp	33	20140423.105419	diff	60	diff	1	2697
JM	39	18	m	PSYC4802-20142	1.0	Block	exp	34	20140423.105424	same	100	diff	0	3599
JM	39	18	m	PSYC4802-20142	1.0	Block	exp	35	20140423.105430	diff	100	diff	1	3757
JM	39	18	m	PSYC4802-20142	1.0	Block	exp	36	20140423.105435	diff	20	diff	1	6493
JM	39	18	m	PSYC4802-20142	1.0	Block	exp	37	20140423.105444	same	20	same	1	2685
JM	39	18	m	PSYC4802-20142	1.0	Block	exp	38	20140423.105449	diff	20	diff	1	2439
JM	39	18	m	PSYC4802-20142	1.0	Block	exp	39	20140423.105453	same	100	diff	0	6347
JM	39	18	m	PSYC4802-20142	1.0	Block	exp	40	20140423.105501	same	20	same	1	3335
JM	39	18	m	PSYC4802-20142	1.0	Block	exp	41	20140423.105507	diff	100	diff	1	3124
JM	39	18	m	PSYC4802-20142	1.0	Block	exp	42	20140423.105512	same	60	same	1	3563
JM	39	18	m	PSYC4802-20142	1.0	Block	exp	43	20140423.105518	diff	100	same	0	3370
JM	39	18	m	PSYC4802-20142	1.0	Block	exp	44	20140423.105523	diff	100	diff	1	3206
JM	39	18	m	PSYC4802-20142	1.0	Block	exp	45	20140423.105528	diff	60	diff	1	7718
JM	39	18	m	PSYC4802-20142	1.0	Block	exp	46	20140423.105538	same	100	diff	0	5520
JM	39	18	m	PSYC4802-20142	1.0	Block	exp	47	20140423.105545	diff	100	diff	1	4800
JM	39	18	m	PSYC4802-20142	1.0	Block	exp	48	20140423.105552	diff	100	diff	1	2790
JM	39	18	m	PSYC4802-20142	1.0	Block	exp	49	20140423.105557	same	20	same	1	3909
JM	39	18	m	PSYC4802-20142	1.0	Block	exp	50	20140423.105603	same	20	same	1	2427
JM	39	18	m	PSYC4802-20142	1.0	Block	exp	51	20140423.105610	same	60	same	1	5790
JM	39	18	m	PSYC4802-20142	1.0	Block	exp	52	20140423.105618	diff	60	diff	1	3557
JM	39	18	m	PSYC4802-20142	1.0	Block	exp	53	20140423.105624	same	20	same	1	3083
JM	39	18	m	PSYC4802-20142	1.0	Block	exp	54	20140423.105629	diff	20	diff	1	4689
JM	39	18	m	PSYC4802-20142	1.0	Block	exp	55	20140423.105635	diff	60	diff	1	4993
JM	39	18	m	PSYC4802-20142	1.0	Block	exp	56	20140423.105642	diff	60	diff	1	4191
JM	39	18	m	PSYC4802-20142	1.0	Block	exp	57	20140423.105649	diff	20	diff	1	4905
JM	39	18	m	PSYC4802-20142	1.0	Block	exp	58	20140423.105655	diff	60	diff	1	8046
JM	39	18	m	PSYC4802-20142	1.0	Block	exp	59	20140423.105706	same	60	same	1	3885
JM	39	18	m	PSYC4802-20142	1.0	Block	exp	60	20140423.105711	same	20	same	1	3546
JM	39	18	m	PSYC4802-20142	1.0	Block	exp	61	20140423.105717	same	20	same	1	2731
JM	39	18	m	PSYC4802-20142	1.0	Block	exp	62	20140423.105722	diff	60	diff	1	7349
JM	39	18	m	PSYC4802-20142	1.0	Block	exp	63	20140423.105731	same	100	same	1	9540
JM	39	18	m	PSYC4802-20142	1.0	Block	exp	64	20140423.105743	same	100	diff	0	2580
JM	39	18	m	PSYC4802-20142	1.0	Block	exp	65	20140423.105747	diff	100	diff	1	4354
JM	39	18	m	PSYC4802-20142	1.0	Block	exp	66	20140423.105754	diff	60	diff	1	6236
JM	39	18	m	PSYC4802-20142	1.0	Block	exp	67	20140423.105802	diff	100	diff	1	4290
JM	39	18	m	PSYC4802-20142	1.0	Block	exp	68	20140423.105808	diff	100	diff	1	4542
JM	39	18	m	PSYC4802-20142	1.0	Block	exp	69	20140423.105815	same	20	same	1	2673
JM	39	18	m	PSYC4802-20142	1.0	Block	exp	70	20140423.105819	diff	20	diff	1	5883
JM	39	18	m	PSYC4802-20142	1.0	Block	exp	71	20140423.105827	diff	60	diff	1	3968
JM	39	18	m	PSYC4802-20142	1.0	Block	exp	72	20140423.105833	same	60	same	1	6434
JM	39	18	m	PSYC4802-20142	1.0	Block	exp	73	20140423.105842	diff	60	diff	1	3312
JM	39	18	m	PSYC4802-20142	1.0	Block	exp	74	20140423.105847	same	20	same	1	3968
JM	39	18	m	PSYC4802-20142	1.0	Block	exp	75	20140423.105853	same	60	same	1	3546
JM	39	18	m	PSYC4802-20142	1.0	Block	exp	76	20140423.105858	same	20	same	1	2275
JM	39	18	m	PSYC4802-20142	1.0	Block	exp	77	20140423.105903	same	20	same	1	1811
JM	39	18	m	PSYC4802-20142	1.0	Block	exp	78	20140423.105907	same	100	diff	0	4736
JM	39	18	m	PSYC4802-20142	1.0	Block	exp	79	20140423.105913	same	100	same	1	7173
JM	39	18	m	PSYC4802-20142	1.0	Block	exp	80	20140423.105923	same	60	same	1	6516
JM	39	18	m	PSYC4802-20142	1.0	Block	exp	81	20140423.105931	diff	100	diff	1	3687
JM	39	18	m	PSYC4802-20142	1.0	Block	exp	82	20140423.105937	same	60	same	1	5901
JM	39	18	m	PSYC4802-20142	1.0	Block	exp	83	20140423.105945	same	100	diff	0	3283
JM	39	18	m	PSYC4802-20142	1.0	Block	exp	84	20140423.105950	same	60	same	1	3511
JM	39	18	m	PSYC4802-20142	1.0	Block	exp	85	20140423.105955	same	20	same	1	4731
JM	39	18	m	PSYC4802-20142	1.0	Block	exp	86	20140423.110002	diff	20	diff	1	5099
JM	39	18	m	PSYC4802-20142	1.0	Block	exp	87	20140423.110009	diff	60	diff	1	2643
JM	39	18	m	PSYC4802-20142	1.0	Block	exp	88	20140423.110014	diff	20	diff	1	3874
JM	39	18	m	PSYC4802-20142	1.0	Block	exp	89	20140423.110020	same	100	diff	0	5286
JM	39	18	m	PSYC4802-20142	1.0	Block	exp	90	20140423.110027	same	60	same	1	3487
JM	39	18	m	PSYC4802-20142	1.0	Block	exp	91	20140423.110033	diff	60	diff	1	5380
JM	39	18	m	PSYC4802-20142	1.0	Block	exp	92	20140423.110040	same	20	diff	0	3980
JM	39	18	m	PSYC4802-20142	1.0	Block	exp	93	20140423.110046	same	100	diff	0	3288
JM	39	18	m	PSYC4802-20142	1.0	Block	exp	94	20140423.110051	same	60	same	1	3757
JM	39	18	m	PSYC4802-20142	1.0	Block	exp	95	20140423.110057	same	100	diff	0	8204
JM	39	18	m	PSYC4802-20142	1.0	Block	exp	96	20140423.110107	same	60	diff	0	5632
JM	39	18	m	PSYC4802-20142	1.0	Block	exp	97	20140423.110115	same	60	same	1	4583
JM	39	18	m	PSYC4802-20142	1.0	Block	exp	98	20140423.110121	same	100	same	1	4864
JM	39	18	m	PSYC4802-20142	1.0	Block	exp	99	20140423.110128	diff	20	diff	1	3311
JM	39	18	m	PSYC4802-20142	1.0	Block	exp	100	20140423.110134	diff	100	diff	1	3370
JM	39	18	m	PSYC4802-20142	1.0	Block	exp	101	20140423.110143	diff	60	diff	1	3365
JM	39	18	m	PSYC4802-20142	1.0	Block	exp	102	20140423.110148	diff	20	diff	1	4272
JM	39	18	m	PSYC4802-20142	1.0	Block	exp	103	20140423.110154	diff	20	diff	1	5673
JM	39	18	m	PSYC4802-20142	1.0	Block	exp	104	20140423.110202	diff	20	diff	1	5673
JM	39	18	m	PSYC4802-20142	1.0	Block	exp	105	20140423.110210	same	100	same	1	5322
JM	39	18	m	PSYC4802-20142	1.0	Block	exp	106	20140423.110217	same	20	same	1	3159
JM	39	18	m	PSYC4802-20142	1.0	Block	exp	107	20140423.110222	diff	20	diff	1	3892
JM	39	18	m	PSYC4802-20142	1.0	Block	exp	108	20140423.110228	same	100	same	1	3540
JM	39	18	m	PSYC4802-20142	1.0	Block	exp	109	20140423.110234	same	100	same	1	7039
JM	39	18	m	PSYC4802-20142	1.0	Block	exp	110	20140423.110243	diff	20	diff	1	3435
JM	39	18	m	PSYC4802-20142	1.0	Block	exp	111	20140423.110248	same	60	same	1	2784
JM	39	18	m	PSYC4802-20142	1.0	Block	exp	112	20140423.110253	same	100	same	1	6048
JM	39	18	m	PSYC4802-20142	1.0	Block	exp	113	20140423.110301	diff	100	diff	1	3335
JM	39	18	m	PSYC4802-20142	1.0	Block	exp	114	20140423.110306	same	100	same	1	4788
JM	39	18	m	PSYC4802-20142	1.0	Block	exp	115	20140423.110313	same	60	same	1	3048
JM	39	18	m	PSYC4802-20142	1.0	Block	exp	116	20140423.110318	same	20	same	1	3153
JM	39	18	m	PSYC4802-20142	1.0	Block	exp	117	20140423.110323	diff	100	diff	1	2621
JM	39	18	m	PSYC4802-20142	1.0	Block	exp	118	20140423.110328	diff	100	diff	1	2585
JM	39	18	m	PSYC4802-20142	1.0	Block	exp	119	20140423.110332	same	100	diff	0	2187
JM	39	18	m	PSYC4802-20142	1.0	Block	exp	120	20140423.110337	same	20	same	1	3106
JM	39	18	m	PSYC4802-20142	1.0	Block	exp	121	20140423.110342	diff	100	diff	1	4905
JM	39	18	m	PSYC4802-20142	1.0	Block	exp	122	20140423.110349	same	20	diff	0	3394
JM	39	18	m	PSYC4802-20142	1.0	Block	exp	123	20140423.110354	diff	60	diff	1	6012
JM	39	18	m	PSYC4802-20142	1.0	Block	exp	124	20140423.110402	same	60	same	1	5655
JM	39	18	m	PSYC4802-20142	1.0	Block	exp	125	20140423.110410	same	60	same	1	3868
JM	39	18	m	PSYC4802-20142	1.0	Block	exp	126	20140423.110415	diff	60	same	0	4250
JM	39	18	m	PSYC4802-20142	1.0	Block	exp	127	20140423.110422	same	60	same	1	4460
JM	39	18	m	PSYC4802-20142	1.0	Block	exp	128	20140423.110428	diff	100	diff	1	6645
JM	39	18	m	PSYC4802-20142	1.0	Block	exp	129	20140423.110437	diff	60	diff	1	5990
JM	39	18	m	PSYC4802-20142	1.0	Block	exp	130	20140423.110445	diff	60	diff	1	3048
JM	39	18	m	PSYC4802-20142	1.0	Block	exp	131	20140423.110450	same	60	same	1	2626
JM	39	18	m	PSYC4802-20142	1.0	Block	exp	132	20140423.110455	diff	60	diff	1	4202
JM	39	18	m	PSYC4802-20142	1.0	Block	exp	133	20140423.110501	same	100	same	1	5990
JM	39	18	m	PSYC4802-20142	1.0	Block	exp	134	20140423.110509	same	20	same	1	7332
JM	39	18	m	PSYC4802-20142	1.0	Block	exp	135	20140423.110518	diff	100	diff	1	5708
JM	39	18	m	PSYC4802-20142	1.0	Block	exp	136	20140423.110526	diff	100	diff	1	2820
JM	39	18	m	PSYC4802-20142	1.0	Block	exp	137	20140423.110531	same	60	same	1	4144
JM	39	18	m	PSYC4802-20142	1.0	Block	exp	138	20140423.110537	diff	20	diff	1	7173
JM	39	18	m	PSYC4802-20142	1.0	Block	exp	139	20140423.110546	diff	20	diff	1	5064
JM	39	18	m	PSYC4802-20142	1.0	Block	exp	140	20140423.110553	diff	20	diff	1	5128
JM	39	18	m	PSYC4802-20142	1.0	Block	exp	141	20140423.110600	diff	20	diff	1	3171
JM	39	18	m	PSYC4802-20142	1.0	Block	exp	142	20140423.110605	diff	60	diff	1	3997
JM	39	18	m	PSYC4802-20142	1.0	Block	exp	143	20140423.110611	diff	100	diff	1	4014
JM	39	18	m	PSYC4802-20142	1.0	Block	exp	144	20140423.110617	same	20	same	1	2445
JM	39	18	m	PSYC4802-20142	1.0	Block	exp	145	20140423.110622	same	60	same	1	3200
JM	39	18	m	PSYC4802-20142	1.0	Block	exp	146	20140423.110627	diff	60	diff	1	4899
JM	39	18	m	PSYC4802-20142	1.0	Block	exp	147	20140423.110634	diff	20	diff	1	3288
JM	39	18	m	PSYC4802-20142	1.0	Block	exp	148	20140423.110639	diff	20	diff	1	3869
JM	39	18	m	PSYC4802-20142	1.0	Block	exp	149	20140423.110645	same	100	diff	0	4490
JM	39	18	m	PSYC4802-20142	1.0	Block	exp	150	20140423.110651	diff	100	diff	1	3194
