Experimenter	Subject	Age	Sex	Experiment	Version	Block	TrialType	Trial	Timestamp	SameDiff	Rotation	Response	Acc	RT
TS	292	18	f	PSYC4802-20144	1.0.1	Block	practice	1	20141024.115258	same	60	diff	0	18297
TS	292	18	f	PSYC4802-20144	1.0.1	Block	practice	2	20141024.115318	same	100	same	1	18791
TS	292	18	f	PSYC4802-20144	1.0.1	Block	practice	3	20141024.115339	same	60	same	1	29663
TS	292	18	f	PSYC4802-20144	1.0.1	Block	practice	4	20141024.115411	diff	20	diff	1	24617
TS	292	18	f	PSYC4802-20144	1.0.1	Block	practice	5	20141024.115437	same	100	same	1	10507
TS	292	18	f	PSYC4802-20144	1.0.1	Block	practice	6	20141024.115450	diff	20	diff	1	10057
TS	292	18	f	PSYC4802-20144	1.0.1	Block	practice	7	20141024.115502	diff	20	diff	1	7641
TS	292	18	f	PSYC4802-20144	1.0.1	Block	practice	8	20141024.115512	same	60	same	1	4972
TS	292	18	f	PSYC4802-20144	1.0.1	Block	practice	9	20141024.115519	diff	60	diff	1	5296
TS	292	18	f	PSYC4802-20144	1.0.1	Block	practice	10	20141024.115526	diff	100	diff	1	7161
TS	292	18	f	PSYC4802-20144	1.0.1	Block	practice	11	20141024.115535	diff	100	same	0	7696
TS	292	18	f	PSYC4802-20144	1.0.1	Block	practice	12	20141024.115545	same	20	same	1	14726
TS	292	18	f	PSYC4802-20144	1.0.1	Block	practice	13	20141024.115601	same	100	same	1	9641
TS	292	18	f	PSYC4802-20144	1.0.1	Block	practice	14	20141024.115613	same	60	same	1	7867
TS	292	18	f	PSYC4802-20144	1.0.1	Block	practice	15	20141024.115623	same	100	diff	0	13632
TS	292	18	f	PSYC4802-20144	1.0.1	Block	practice	16	20141024.115639	same	100	same	1	12707
TS	292	18	f	PSYC4802-20144	1.0.1	Block	practice	17	20141024.115653	diff	60	diff	1	7627
TS	292	18	f	PSYC4802-20144	1.0.1	Block	practice	18	20141024.115703	diff	100	diff	1	27892
TS	292	18	f	PSYC4802-20144	1.0.1	Block	practice	19	20141024.115733	diff	100	same	0	11651
TS	292	18	f	PSYC4802-20144	1.0.1	Block	practice	20	20141024.115746	same	20	same	1	8962
TS	292	18	f	PSYC4802-20144	1.0.1	Block	practice	21	20141024.115757	diff	100	diff	1	15997
TS	292	18	f	PSYC4802-20144	1.0.1	Block	practice	22	20141024.115815	diff	60	190	-3	35282
TS	292	18	f	PSYC4802-20144	1.0.1	Block	practice	23	20141024.115853	diff	20	diff	1	27158
TS	292	18	f	PSYC4802-20144	1.0.1	Block	practice	24	20141024.115922	diff	20	diff	1	10997
TS	292	18	f	PSYC4802-20144	1.0.1	Block	practice	25	20141024.115935	same	60	same	1	8126
TS	292	18	f	PSYC4802-20144	1.0.1	Block	practice	26	20141024.115945	same	20	same	1	6986
TS	292	18	f	PSYC4802-20144	1.0.1	Block	practice	27	20141024.115954	diff	60	diff	1	16142
TS	292	18	f	PSYC4802-20144	1.0.1	Block	practice	28	20141024.120012	same	20	same	1	5176
TS	292	18	f	PSYC4802-20144	1.0.1	Block	practice	29	20141024.120019	same	20	same	1	3752
TS	292	18	f	PSYC4802-20144	1.0.1	Block	practice	30	20141024.120025	diff	60	diff	1	5911
TS	292	18	f	PSYC4802-20144	1.0.1	Block	exp	31	20141024.120033	same	20	same	1	4156
TS	292	18	f	PSYC4802-20144	1.0.1	Block	exp	32	20141024.120039	same	60	same	1	7901
TS	292	18	f	PSYC4802-20144	1.0.1	Block	exp	33	20141024.120049	diff	100	diff	1	9462
TS	292	18	f	PSYC4802-20144	1.0.1	Block	exp	34	20141024.120100	diff	60	same	0	9177
TS	292	18	f	PSYC4802-20144	1.0.1	Block	exp	35	20141024.120111	diff	20	diff	1	11997
TS	292	18	f	PSYC4802-20144	1.0.1	Block	exp	36	20141024.120125	same	100	same	1	8042
TS	292	18	f	PSYC4802-20144	1.0.1	Block	exp	37	20141024.120135	same	60	same	1	7146
TS	292	18	f	PSYC4802-20144	1.0.1	Block	exp	38	20141024.120145	diff	20	diff	1	13471
TS	292	18	f	PSYC4802-20144	1.0.1	Block	exp	39	20141024.120200	same	100	same	1	5841
TS	292	18	f	PSYC4802-20144	1.0.1	Block	exp	40	20141024.120208	diff	100	diff	1	8121
TS	292	18	f	PSYC4802-20144	1.0.1	Block	exp	41	20141024.120218	same	100	diff	0	9052
TS	292	18	f	PSYC4802-20144	1.0.1	Block	exp	42	20141024.120229	same	20	diff	0	6641
TS	292	18	f	PSYC4802-20144	1.0.1	Block	exp	43	20141024.120238	diff	100	same	0	10796
TS	292	18	f	PSYC4802-20144	1.0.1	Block	exp	44	20141024.120250	diff	60	diff	1	13872
TS	292	18	f	PSYC4802-20144	1.0.1	Block	exp	45	20141024.120306	diff	60	diff	1	4887
TS	292	18	f	PSYC4802-20144	1.0.1	Block	exp	46	20141024.120313	diff	100	diff	1	6357
TS	292	18	f	PSYC4802-20144	1.0.1	Block	exp	47	20141024.120322	diff	100	diff	1	14432
TS	292	18	f	PSYC4802-20144	1.0.1	Block	exp	48	20141024.120338	diff	20	diff	1	25047
TS	292	18	f	PSYC4802-20144	1.0.1	Block	exp	49	20141024.120405	same	100	same	1	15583
TS	292	18	f	PSYC4802-20144	1.0.1	Block	exp	50	20141024.120423	same	100	same	1	6257
TS	292	18	f	PSYC4802-20144	1.0.1	Block	exp	51	20141024.120433	same	100	same	1	8211
TS	292	18	f	PSYC4802-20144	1.0.1	Block	exp	52	20141024.120444	diff	100	diff	1	4591
TS	292	18	f	PSYC4802-20144	1.0.1	Block	exp	53	20141024.120450	same	60	same	1	5252
TS	292	18	f	PSYC4802-20144	1.0.1	Block	exp	54	20141024.120458	same	100	same	1	15172
TS	292	18	f	PSYC4802-20144	1.0.1	Block	exp	55	20141024.120515	diff	100	diff	1	17032
TS	292	18	f	PSYC4802-20144	1.0.1	Block	exp	56	20141024.120534	same	100	same	1	32383
TS	292	18	f	PSYC4802-20144	1.0.1	Block	exp	57	20141024.120608	diff	60	diff	1	11261
TS	292	18	f	PSYC4802-20144	1.0.1	Block	exp	58	20141024.120621	same	60	same	1	4916
TS	292	18	f	PSYC4802-20144	1.0.1	Block	exp	59	20141024.120628	diff	20	diff	1	6361
TS	292	18	f	PSYC4802-20144	1.0.1	Block	exp	60	20141024.120637	same	20	same	1	4347
TS	292	18	f	PSYC4802-20144	1.0.1	Block	exp	61	20141024.120643	diff	100	diff	1	12561
TS	292	18	f	PSYC4802-20144	1.0.1	Block	exp	62	20141024.120658	diff	60	diff	1	7827
TS	292	18	f	PSYC4802-20144	1.0.1	Block	exp	63	20141024.120707	diff	20	diff	1	7809
TS	292	18	f	PSYC4802-20144	1.0.1	Block	exp	64	20141024.120717	same	100	same	1	8492
TS	292	18	f	PSYC4802-20144	1.0.1	Block	exp	65	20141024.120728	diff	100	diff	1	6056
TS	292	18	f	PSYC4802-20144	1.0.1	Block	exp	66	20141024.120739	same	100	same	1	17106
TS	292	18	f	PSYC4802-20144	1.0.1	Block	exp	67	20141024.120758	diff	60	diff	1	12642
TS	292	18	f	PSYC4802-20144	1.0.1	Block	exp	68	20141024.120813	diff	100	diff	1	9442
TS	292	18	f	PSYC4802-20144	1.0.1	Block	exp	69	20141024.120824	same	100	same	1	7723
TS	292	18	f	PSYC4802-20144	1.0.1	Block	exp	70	20141024.120834	diff	60	diff	1	9267
TS	292	18	f	PSYC4802-20144	1.0.1	Block	exp	71	20141024.120845	diff	20	diff	1	12477
TS	292	18	f	PSYC4802-20144	1.0.1	Block	exp	72	20141024.120900	diff	20	diff	1	9882
TS	292	18	f	PSYC4802-20144	1.0.1	Block	exp	73	20141024.120912	diff	20	diff	1	24557
TS	292	18	f	PSYC4802-20144	1.0.1	Block	exp	74	20141024.120938	diff	100	diff	1	7156
TS	292	18	f	PSYC4802-20144	1.0.1	Block	exp	75	20141024.120947	same	100	same	1	20957
TS	292	18	f	PSYC4802-20144	1.0.1	Block	exp	76	20141024.121010	diff	60	diff	1	8806
TS	292	18	f	PSYC4802-20144	1.0.1	Block	exp	77	20141024.121021	same	60	same	1	14267
TS	292	18	f	PSYC4802-20144	1.0.1	Block	exp	78	20141024.121038	diff	60	diff	1	8056
TS	292	18	f	PSYC4802-20144	1.0.1	Block	exp	79	20141024.121048	same	60	same	1	6102
TS	292	18	f	PSYC4802-20144	1.0.1	Block	exp	80	20141024.121056	diff	100	diff	1	5341
TS	292	18	f	PSYC4802-20144	1.0.1	Block	exp	81	20141024.121103	diff	60	diff	1	6486
TS	292	18	f	PSYC4802-20144	1.0.1	Block	exp	82	20141024.121111	same	20	same	1	4301
TS	292	18	f	PSYC4802-20144	1.0.1	Block	exp	83	20141024.121118	same	100	same	1	8587
TS	292	18	f	PSYC4802-20144	1.0.1	Block	exp	84	20141024.121128	diff	100	diff	1	5147
TS	292	18	f	PSYC4802-20144	1.0.1	Block	exp	85	20141024.121136	same	20	same	1	3446
TS	292	18	f	PSYC4802-20144	1.0.1	Block	exp	86	20141024.121141	same	20	same	1	3221
TS	292	18	f	PSYC4802-20144	1.0.1	Block	exp	87	20141024.121146	same	60	same	1	5011
TS	292	18	f	PSYC4802-20144	1.0.1	Block	exp	88	20141024.121153	diff	60	diff	1	10052
TS	292	18	f	PSYC4802-20144	1.0.1	Block	exp	89	20141024.121205	same	20	same	1	5391
TS	292	18	f	PSYC4802-20144	1.0.1	Block	exp	90	20141024.121213	diff	100	diff	1	15617
TS	292	18	f	PSYC4802-20144	1.0.1	Block	exp	91	20141024.121230	same	20	same	1	5016
TS	292	18	f	PSYC4802-20144	1.0.1	Block	exp	92	20141024.121237	same	60	same	1	9421
TS	292	18	f	PSYC4802-20144	1.0.1	Block	exp	93	20141024.121249	same	20	same	1	2826
TS	292	18	f	PSYC4802-20144	1.0.1	Block	exp	94	20141024.121253	diff	20	diff	1	5296
TS	292	18	f	PSYC4802-20144	1.0.1	Block	exp	95	20141024.121301	diff	20	diff	1	6021
TS	292	18	f	PSYC4802-20144	1.0.1	Block	exp	96	20141024.121309	same	20	same	1	5856
TS	292	18	f	PSYC4802-20144	1.0.1	Block	exp	97	20141024.121317	diff	60	diff	1	6216
TS	292	18	f	PSYC4802-20144	1.0.1	Block	exp	98	20141024.121325	same	100	same	1	7627
TS	292	18	f	PSYC4802-20144	1.0.1	Block	exp	99	20141024.121334	same	100	same	1	8387
TS	292	18	f	PSYC4802-20144	1.0.1	Block	exp	100	20141024.121345	diff	20	diff	1	9737
TS	292	18	f	PSYC4802-20144	1.0.1	Block	exp	101	20141024.121359	same	60	same	1	5998
TS	292	18	f	PSYC4802-20144	1.0.1	Block	exp	102	20141024.121407	same	20	same	1	4241
TS	292	18	f	PSYC4802-20144	1.0.1	Block	exp	103	20141024.121413	same	60	same	1	9767
TS	292	18	f	PSYC4802-20144	1.0.1	Block	exp	104	20141024.121425	diff	60	diff	1	14732
TS	292	18	f	PSYC4802-20144	1.0.1	Block	exp	105	20141024.121441	same	20	same	1	2611
TS	292	18	f	PSYC4802-20144	1.0.1	Block	exp	106	20141024.121446	same	20	same	1	3086
TS	292	18	f	PSYC4802-20144	1.0.1	Block	exp	107	20141024.121451	diff	20	diff	1	3206
TS	292	18	f	PSYC4802-20144	1.0.1	Block	exp	108	20141024.121456	same	60	same	1	5361
TS	292	18	f	PSYC4802-20144	1.0.1	Block	exp	109	20141024.121504	diff	100	diff	1	7332
TS	292	18	f	PSYC4802-20144	1.0.1	Block	exp	110	20141024.121513	diff	60	diff	1	9438
TS	292	18	f	PSYC4802-20144	1.0.1	Block	exp	111	20141024.121525	diff	20	diff	1	10847
TS	292	18	f	PSYC4802-20144	1.0.1	Block	exp	112	20141024.121537	same	100	same	1	14136
TS	292	18	f	PSYC4802-20144	1.0.1	Block	exp	113	20141024.121553	diff	60	same	0	15781
TS	292	18	f	PSYC4802-20144	1.0.1	Block	exp	114	20141024.121611	same	20	same	1	4241
TS	292	18	f	PSYC4802-20144	1.0.1	Block	exp	115	20141024.121618	same	20	same	1	3442
TS	292	18	f	PSYC4802-20144	1.0.1	Block	exp	116	20141024.121623	diff	20	diff	1	12856
TS	292	18	f	PSYC4802-20144	1.0.1	Block	exp	117	20141024.121638	same	20	same	1	3956
TS	292	18	f	PSYC4802-20144	1.0.1	Block	exp	118	20141024.121644	diff	100	diff	1	6311
TS	292	18	f	PSYC4802-20144	1.0.1	Block	exp	119	20141024.121652	same	100	same	1	12947
TS	292	18	f	PSYC4802-20144	1.0.1	Block	exp	120	20141024.121707	same	60	same	1	8682
TS	292	18	f	PSYC4802-20144	1.0.1	Block	exp	121	20141024.121718	diff	20	diff	1	6046
TS	292	18	f	PSYC4802-20144	1.0.1	Block	exp	122	20141024.121726	diff	100	diff	1	6061
TS	292	18	f	PSYC4802-20144	1.0.1	Block	exp	123	20141024.121734	diff	20	diff	1	5641
TS	292	18	f	PSYC4802-20144	1.0.1	Block	exp	124	20141024.121741	diff	20	diff	1	8207
TS	292	18	f	PSYC4802-20144	1.0.1	Block	exp	125	20141024.121752	same	60	same	1	4966
TS	292	18	f	PSYC4802-20144	1.0.1	Block	exp	126	20141024.121759	diff	100	diff	1	5442
TS	292	18	f	PSYC4802-20144	1.0.1	Block	exp	127	20141024.121806	same	60	same	1	3646
TS	292	18	f	PSYC4802-20144	1.0.1	Block	exp	128	20141024.121812	same	20	same	1	3367
TS	292	18	f	PSYC4802-20144	1.0.1	Block	exp	129	20141024.121817	same	60	same	1	3226
TS	292	18	f	PSYC4802-20144	1.0.1	Block	exp	130	20141024.121822	same	20	same	1	7272
TS	292	18	f	PSYC4802-20144	1.0.1	Block	exp	131	20141024.121831	diff	100	diff	1	4781
TS	292	18	f	PSYC4802-20144	1.0.1	Block	exp	132	20141024.121838	same	60	same	1	7482
TS	292	18	f	PSYC4802-20144	1.0.1	Block	exp	133	20141024.121848	diff	60	diff	1	6966
TS	292	18	f	PSYC4802-20144	1.0.1	Block	exp	134	20141024.121857	same	100	same	1	11337
TS	292	18	f	PSYC4802-20144	1.0.1	Block	exp	135	20141024.121910	same	20	same	1	4091
TS	292	18	f	PSYC4802-20144	1.0.1	Block	exp	136	20141024.121916	same	60	same	1	5491
TS	292	18	f	PSYC4802-20144	1.0.1	Block	exp	137	20141024.121923	same	100	same	1	6197
TS	292	18	f	PSYC4802-20144	1.0.1	Block	exp	138	20141024.121932	diff	60	diff	1	3346
TS	292	18	f	PSYC4802-20144	1.0.1	Block	exp	139	20141024.121937	same	60	same	1	3741
TS	292	18	f	PSYC4802-20144	1.0.1	Block	exp	140	20141024.121943	diff	20	diff	1	3341
TS	292	18	f	PSYC4802-20144	1.0.1	Block	exp	141	20141024.121948	same	20	same	1	5696
TS	292	18	f	PSYC4802-20144	1.0.1	Block	exp	142	20141024.121956	diff	60	diff	1	7781
TS	292	18	f	PSYC4802-20144	1.0.1	Block	exp	143	20141024.122005	diff	100	diff	1	5036
TS	292	18	f	PSYC4802-20144	1.0.1	Block	exp	144	20141024.122012	same	60	same	1	5642
TS	292	18	f	PSYC4802-20144	1.0.1	Block	exp	145	20141024.122020	same	100	same	1	9321
TS	292	18	f	PSYC4802-20144	1.0.1	Block	exp	146	20141024.122031	diff	20	diff	1	6087
TS	292	18	f	PSYC4802-20144	1.0.1	Block	exp	147	20141024.122039	diff	20	diff	1	5732
TS	292	18	f	PSYC4802-20144	1.0.1	Block	exp	148	20141024.122047	same	60	same	1	7182
TS	292	18	f	PSYC4802-20144	1.0.1	Block	exp	149	20141024.122056	diff	60	diff	1	5151
TS	292	18	f	PSYC4802-20144	1.0.1	Block	exp	150	20141024.122103	diff	60	diff	1	4637
