Experimenter	Subject	Age	Sex	Experiment	Version	Block	TrialType	Trial	Timestamp	SameDiff	Rotation	Response	Acc	RT
nb	289	24	F	PSYC4802-20144	1.0.1	Block	practice	1	20141024.114717	same	20	same	1	3271
nb	289	24	F	PSYC4802-20144	1.0.1	Block	practice	2	20141024.114723	same	20	same	1	3752
nb	289	24	F	PSYC4802-20144	1.0.1	Block	practice	3	20141024.114729	diff	60	diff	1	3881
nb	289	24	F	PSYC4802-20144	1.0.1	Block	practice	4	20141024.114735	diff	60	diff	1	5787
nb	289	24	F	PSYC4802-20144	1.0.1	Block	practice	5	20141024.114742	diff	100	same	0	5177
nb	289	24	F	PSYC4802-20144	1.0.1	Block	practice	6	20141024.114750	same	60	same	1	11971
nb	289	24	F	PSYC4802-20144	1.0.1	Block	practice	7	20141024.114804	same	100	same	1	8942
nb	289	24	F	PSYC4802-20144	1.0.1	Block	practice	8	20141024.114815	same	20	same	1	4697
nb	289	24	F	PSYC4802-20144	1.0.1	Block	practice	9	20141024.114821	same	60	same	1	10586
nb	289	24	F	PSYC4802-20144	1.0.1	Block	practice	10	20141024.114834	same	20	same	1	4806
nb	289	24	F	PSYC4802-20144	1.0.1	Block	practice	11	20141024.114841	diff	100	diff	1	8912
nb	289	24	F	PSYC4802-20144	1.0.1	Block	practice	12	20141024.114852	same	60	same	1	8351
nb	289	24	F	PSYC4802-20144	1.0.1	Block	practice	13	20141024.114902	diff	100	diff	1	5866
nb	289	24	F	PSYC4802-20144	1.0.1	Block	practice	14	20141024.114910	diff	60	diff	1	3687
nb	289	24	F	PSYC4802-20144	1.0.1	Block	practice	15	20141024.114916	diff	20	diff	1	7731
nb	289	24	F	PSYC4802-20144	1.0.1	Block	practice	16	20141024.114925	diff	60	diff	1	3166
nb	289	24	F	PSYC4802-20144	1.0.1	Block	practice	17	20141024.114931	diff	60	diff	1	8166
nb	289	24	F	PSYC4802-20144	1.0.1	Block	practice	18	20141024.114941	diff	20	diff	1	7457
nb	289	24	F	PSYC4802-20144	1.0.1	Block	practice	19	20141024.114950	diff	100	diff	1	3921
nb	289	24	F	PSYC4802-20144	1.0.1	Block	practice	20	20141024.114956	same	20	same	1	5201
nb	289	24	F	PSYC4802-20144	1.0.1	Block	practice	21	20141024.115003	diff	20	diff	1	2091
nb	289	24	F	PSYC4802-20144	1.0.1	Block	practice	22	20141024.115007	same	100	diff	0	8191
nb	289	24	F	PSYC4802-20144	1.0.1	Block	practice	23	20141024.115018	diff	20	diff	1	8551
nb	289	24	F	PSYC4802-20144	1.0.1	Block	practice	24	20141024.115028	same	100	diff	0	2592
nb	289	24	F	PSYC4802-20144	1.0.1	Block	practice	25	20141024.115033	same	100	diff	0	7031
nb	289	24	F	PSYC4802-20144	1.0.1	Block	practice	26	20141024.115042	diff	20	diff	1	7227
nb	289	24	F	PSYC4802-20144	1.0.1	Block	practice	27	20141024.115051	diff	100	diff	1	7096
nb	289	24	F	PSYC4802-20144	1.0.1	Block	practice	28	20141024.115100	same	60	same	1	4951
nb	289	24	F	PSYC4802-20144	1.0.1	Block	practice	29	20141024.115107	same	100	same	1	6066
nb	289	24	F	PSYC4802-20144	1.0.1	Block	practice	30	20141024.115115	same	60	diff	0	4916
nb	289	24	F	PSYC4802-20144	1.0.1	Block	exp	31	20141024.115122	diff	100	diff	1	9476
nb	289	24	F	PSYC4802-20144	1.0.1	Block	exp	32	20141024.115133	same	100	same	1	6086
nb	289	24	F	PSYC4802-20144	1.0.1	Block	exp	33	20141024.115142	same	60	same	1	7691
nb	289	24	F	PSYC4802-20144	1.0.1	Block	exp	34	20141024.115151	diff	100	same	0	17712
nb	289	24	F	PSYC4802-20144	1.0.1	Block	exp	35	20141024.115211	diff	100	same	0	17072
nb	289	24	F	PSYC4802-20144	1.0.1	Block	exp	36	20141024.115230	diff	60	diff	1	3961
nb	289	24	F	PSYC4802-20144	1.0.1	Block	exp	37	20141024.115236	same	100	diff	0	4266
nb	289	24	F	PSYC4802-20144	1.0.1	Block	exp	38	20141024.115242	same	100	same	1	17171
nb	289	24	F	PSYC4802-20144	1.0.1	Block	exp	39	20141024.115301	diff	20	same	0	21532
nb	289	24	F	PSYC4802-20144	1.0.1	Block	exp	40	20141024.115325	diff	60	diff	1	16011
nb	289	24	F	PSYC4802-20144	1.0.1	Block	exp	41	20141024.115343	same	100	diff	0	11211
nb	289	24	F	PSYC4802-20144	1.0.1	Block	exp	42	20141024.115356	same	20	same	1	6492
nb	289	24	F	PSYC4802-20144	1.0.1	Block	exp	43	20141024.115405	diff	60	same	0	11366
nb	289	24	F	PSYC4802-20144	1.0.1	Block	exp	44	20141024.115418	diff	20	diff	1	22847
nb	289	24	F	PSYC4802-20144	1.0.1	Block	exp	45	20141024.115443	diff	20	diff	1	16232
nb	289	24	F	PSYC4802-20144	1.0.1	Block	exp	46	20141024.115501	diff	20	same	0	14557
nb	289	24	F	PSYC4802-20144	1.0.1	Block	exp	47	20141024.115518	diff	60	diff	1	8976
nb	289	24	F	PSYC4802-20144	1.0.1	Block	exp	48	20141024.115529	same	60	same	1	16683
nb	289	24	F	PSYC4802-20144	1.0.1	Block	exp	49	20141024.115547	same	20	same	1	5216
nb	289	24	F	PSYC4802-20144	1.0.1	Block	exp	50	20141024.115555	same	100	same	1	9666
nb	289	24	F	PSYC4802-20144	1.0.1	Block	exp	51	20141024.115701	diff	60	diff	1	12497
nb	289	24	F	PSYC4802-20144	1.0.1	Block	exp	52	20141024.115715	same	60	same	1	10402
nb	289	24	F	PSYC4802-20144	1.0.1	Block	exp	53	20141024.115728	same	20	same	1	6291
nb	289	24	F	PSYC4802-20144	1.0.1	Block	exp	54	20141024.115736	diff	60	diff	1	12352
nb	289	24	F	PSYC4802-20144	1.0.1	Block	exp	55	20141024.115750	same	60	same	1	5936
nb	289	24	F	PSYC4802-20144	1.0.1	Block	exp	56	20141024.115758	same	20	same	1	5306
nb	289	24	F	PSYC4802-20144	1.0.1	Block	exp	57	20141024.115806	same	60	same	1	6201
nb	289	24	F	PSYC4802-20144	1.0.1	Block	exp	58	20141024.115814	diff	20	diff	1	5602
nb	289	24	F	PSYC4802-20144	1.0.1	Block	exp	59	20141024.115822	same	60	same	1	9491
nb	289	24	F	PSYC4802-20144	1.0.1	Block	exp	60	20141024.115833	same	20	same	1	4361
nb	289	24	F	PSYC4802-20144	1.0.1	Block	exp	61	20141024.115839	same	20	same	1	3331
nb	289	24	F	PSYC4802-20144	1.0.1	Block	exp	62	20141024.115845	same	20	same	1	4482
nb	289	24	F	PSYC4802-20144	1.0.1	Block	exp	63	20141024.115851	diff	20	diff	1	9466
nb	289	24	F	PSYC4802-20144	1.0.1	Block	exp	64	20141024.115903	diff	60	same	0	9501
nb	289	24	F	PSYC4802-20144	1.0.1	Block	exp	65	20141024.115914	diff	100	same	0	7461
nb	289	24	F	PSYC4802-20144	1.0.1	Block	exp	66	20141024.115924	diff	100	diff	1	7242
nb	289	24	F	PSYC4802-20144	1.0.1	Block	exp	67	20141024.115933	same	20	same	1	5356
nb	289	24	F	PSYC4802-20144	1.0.1	Block	exp	68	20141024.115940	diff	100	same	0	16417
nb	289	24	F	PSYC4802-20144	1.0.1	Block	exp	69	20141024.115959	same	20	same	1	4817
nb	289	24	F	PSYC4802-20144	1.0.1	Block	exp	70	20141024.120005	same	20	same	1	3441
nb	289	24	F	PSYC4802-20144	1.0.1	Block	exp	71	20141024.120011	diff	60	diff	1	8492
nb	289	24	F	PSYC4802-20144	1.0.1	Block	exp	72	20141024.120021	same	20	same	1	3491
nb	289	24	F	PSYC4802-20144	1.0.1	Block	exp	73	20141024.120027	same	60	same	1	7511
nb	289	24	F	PSYC4802-20144	1.0.1	Block	exp	74	20141024.120037	diff	100	same	0	10551
nb	289	24	F	PSYC4802-20144	1.0.1	Block	exp	75	20141024.120049	same	60	same	1	4287
nb	289	24	F	PSYC4802-20144	1.0.1	Block	exp	76	20141024.120055	diff	100	diff	1	16741
nb	289	24	F	PSYC4802-20144	1.0.1	Block	exp	77	20141024.120114	diff	60	same	0	8732
nb	289	24	F	PSYC4802-20144	1.0.1	Block	exp	78	20141024.120125	same	100	diff	0	14886
nb	289	24	F	PSYC4802-20144	1.0.1	Block	exp	79	20141024.120142	same	100	same	1	6531
nb	289	24	F	PSYC4802-20144	1.0.1	Block	exp	80	20141024.120150	diff	100	diff	1	11687
nb	289	24	F	PSYC4802-20144	1.0.1	Block	exp	81	20141024.120204	diff	20	diff	1	11826
nb	289	24	F	PSYC4802-20144	1.0.1	Block	exp	82	20141024.120218	same	60	same	1	7911
nb	289	24	F	PSYC4802-20144	1.0.1	Block	exp	83	20141024.120228	diff	20	diff	1	23750
nb	289	24	F	PSYC4802-20144	1.0.1	Block	exp	84	20141024.120253	same	20	same	1	7731
nb	289	24	F	PSYC4802-20144	1.0.1	Block	exp	85	20141024.120303	same	60	diff	0	8741
nb	289	24	F	PSYC4802-20144	1.0.1	Block	exp	86	20141024.120314	same	100	same	1	11107
nb	289	24	F	PSYC4802-20144	1.0.1	Block	exp	87	20141024.120327	same	60	same	1	7596
nb	289	24	F	PSYC4802-20144	1.0.1	Block	exp	88	20141024.120337	diff	20	diff	1	3481
nb	289	24	F	PSYC4802-20144	1.0.1	Block	exp	89	20141024.120342	same	100	same	1	7956
nb	289	24	F	PSYC4802-20144	1.0.1	Block	exp	90	20141024.120352	diff	100	diff	1	10316
nb	289	24	F	PSYC4802-20144	1.0.1	Block	exp	91	20141024.120405	same	60	same	1	9552
nb	289	24	F	PSYC4802-20144	1.0.1	Block	exp	92	20141024.120416	same	20	same	1	3316
nb	289	24	F	PSYC4802-20144	1.0.1	Block	exp	93	20141024.120421	diff	100	same	0	12111
nb	289	24	F	PSYC4802-20144	1.0.1	Block	exp	94	20141024.120436	same	100	same	1	7687
nb	289	24	F	PSYC4802-20144	1.0.1	Block	exp	95	20141024.120445	diff	60	same	0	14867
nb	289	24	F	PSYC4802-20144	1.0.1	Block	exp	96	20141024.120502	diff	20	diff	1	6121
nb	289	24	F	PSYC4802-20144	1.0.1	Block	exp	97	20141024.120510	same	100	diff	0	18797
nb	289	24	F	PSYC4802-20144	1.0.1	Block	exp	98	20141024.120531	same	20	same	1	3216
nb	289	24	F	PSYC4802-20144	1.0.1	Block	exp	99	20141024.120536	diff	100	diff	1	9396
nb	289	24	F	PSYC4802-20144	1.0.1	Block	exp	100	20141024.120548	same	20	same	1	3166
nb	289	24	F	PSYC4802-20144	1.0.1	Block	exp	101	20141024.120622	diff	100	diff	1	5611
nb	289	24	F	PSYC4802-20144	1.0.1	Block	exp	102	20141024.120630	diff	100	diff	1	6782
nb	289	24	F	PSYC4802-20144	1.0.1	Block	exp	103	20141024.120639	same	100	same	1	7866
nb	289	24	F	PSYC4802-20144	1.0.1	Block	exp	104	20141024.120648	same	20	same	1	3446
nb	289	24	F	PSYC4802-20144	1.0.1	Block	exp	105	20141024.120654	same	60	same	1	10007
nb	289	24	F	PSYC4802-20144	1.0.1	Block	exp	106	20141024.120706	same	60	same	1	10057
nb	289	24	F	PSYC4802-20144	1.0.1	Block	exp	107	20141024.120718	diff	20	diff	1	8911
nb	289	24	F	PSYC4802-20144	1.0.1	Block	exp	108	20141024.120729	diff	100	same	0	15352
nb	289	24	F	PSYC4802-20144	1.0.1	Block	exp	109	20141024.120746	diff	100	diff	1	7937
nb	289	24	F	PSYC4802-20144	1.0.1	Block	exp	110	20141024.120756	diff	60	diff	1	5801
nb	289	24	F	PSYC4802-20144	1.0.1	Block	exp	111	20141024.120804	diff	20	diff	1	6487
nb	289	24	F	PSYC4802-20144	1.0.1	Block	exp	112	20141024.120813	same	60	same	1	3851
nb	289	24	F	PSYC4802-20144	1.0.1	Block	exp	113	20141024.120819	diff	20	same	0	8227
nb	289	24	F	PSYC4802-20144	1.0.1	Block	exp	114	20141024.120829	same	100	same	1	9427
nb	289	24	F	PSYC4802-20144	1.0.1	Block	exp	115	20141024.120840	same	100	same	1	8221
nb	289	24	F	PSYC4802-20144	1.0.1	Block	exp	116	20141024.120851	diff	100	diff	1	12526
nb	289	24	F	PSYC4802-20144	1.0.1	Block	exp	117	20141024.120905	diff	60	diff	1	23657
nb	289	24	F	PSYC4802-20144	1.0.1	Block	exp	118	20141024.120931	same	60	same	1	5272
nb	289	24	F	PSYC4802-20144	1.0.1	Block	exp	119	20141024.120938	same	100	same	1	6092
nb	289	24	F	PSYC4802-20144	1.0.1	Block	exp	120	20141024.120946	same	20	same	1	3961
nb	289	24	F	PSYC4802-20144	1.0.1	Block	exp	121	20141024.120952	diff	100	diff	1	4511
nb	289	24	F	PSYC4802-20144	1.0.1	Block	exp	122	20141024.120959	diff	20	diff	1	4686
nb	289	24	F	PSYC4802-20144	1.0.1	Block	exp	123	20141024.121006	diff	100	same	0	9797
nb	289	24	F	PSYC4802-20144	1.0.1	Block	exp	124	20141024.121017	diff	20	diff	1	11017
nb	289	24	F	PSYC4802-20144	1.0.1	Block	exp	125	20141024.121030	same	100	diff	0	9071
nb	289	24	F	PSYC4802-20144	1.0.1	Block	exp	126	20141024.121041	diff	60	diff	1	9067
nb	289	24	F	PSYC4802-20144	1.0.1	Block	exp	127	20141024.121052	diff	20	same	0	11917
nb	289	24	F	PSYC4802-20144	1.0.1	Block	exp	128	20141024.121106	diff	20	diff	1	16817
nb	289	24	F	PSYC4802-20144	1.0.1	Block	exp	129	20141024.121125	diff	20	diff	1	13986
nb	289	24	F	PSYC4802-20144	1.0.1	Block	exp	130	20141024.121141	diff	60	diff	1	15492
nb	289	24	F	PSYC4802-20144	1.0.1	Block	exp	131	20141024.121159	diff	20	multi	-2	4121
nb	289	24	F	PSYC4802-20144	1.0.1	Block	exp	132	20141024.121205	same	100	same	1	17437
nb	289	24	F	PSYC4802-20144	1.0.1	Block	exp	133	20141024.121224	same	100	same	1	10812
nb	289	24	F	PSYC4802-20144	1.0.1	Block	exp	134	20141024.121237	same	100	same	1	7446
nb	289	24	F	PSYC4802-20144	1.0.1	Block	exp	135	20141024.121247	diff	60	diff	1	5961
nb	289	24	F	PSYC4802-20144	1.0.1	Block	exp	136	20141024.121255	same	100	diff	0	3591
nb	289	24	F	PSYC4802-20144	1.0.1	Block	exp	137	20141024.121300	diff	60	same	0	7802
nb	289	24	F	PSYC4802-20144	1.0.1	Block	exp	138	20141024.121310	diff	60	diff	1	5007
nb	289	24	F	PSYC4802-20144	1.0.1	Block	exp	139	20141024.121317	same	60	same	1	6456
nb	289	24	F	PSYC4802-20144	1.0.1	Block	exp	140	20141024.121325	diff	100	diff	1	6021
nb	289	24	F	PSYC4802-20144	1.0.1	Block	exp	141	20141024.121333	same	60	diff	0	14671
nb	289	24	F	PSYC4802-20144	1.0.1	Block	exp	142	20141024.121350	diff	60	same	0	18102
nb	289	24	F	PSYC4802-20144	1.0.1	Block	exp	143	20141024.121410	diff	20	diff	1	3701
nb	289	24	F	PSYC4802-20144	1.0.1	Block	exp	144	20141024.121416	same	20	same	1	4086
nb	289	24	F	PSYC4802-20144	1.0.1	Block	exp	145	20141024.121422	same	60	same	1	3927
nb	289	24	F	PSYC4802-20144	1.0.1	Block	exp	146	20141024.121428	diff	60	diff	1	4446
nb	289	24	F	PSYC4802-20144	1.0.1	Block	exp	147	20141024.121435	same	60	same	1	10136
nb	289	24	F	PSYC4802-20144	1.0.1	Block	exp	148	20141024.121447	diff	60	same	0	11437
nb	289	24	F	PSYC4802-20144	1.0.1	Block	exp	149	20141024.121500	same	20	same	1	6081
nb	289	24	F	PSYC4802-20144	1.0.1	Block	exp	150	20141024.121508	same	20	same	1	3576
