Experimenter	Subject	Age	Sex	Experiment	Version	Block	TrialType	Trial	Timestamp	SameDiff	Rotation	Response	Acc	RT
EMT	59	18	f	PSYC4802-20142	1.0	Block	practice	1	20140425.104731	diff	60	same	0	7771
EMT	59	18	f	PSYC4802-20142	1.0	Block	practice	2	20140425.104742	diff	100	same	0	9546
EMT	59	18	f	PSYC4802-20142	1.0	Block	practice	3	20140425.104753	same	20	same	1	3511
EMT	59	18	f	PSYC4802-20142	1.0	Block	practice	4	20140425.104759	diff	60	same	0	4905
EMT	59	18	f	PSYC4802-20142	1.0	Block	practice	5	20140425.104806	diff	20	same	0	7887
EMT	59	18	f	PSYC4802-20142	1.0	Block	practice	6	20140425.104815	same	60	same	1	2907
EMT	59	18	f	PSYC4802-20142	1.0	Block	practice	7	20140425.104820	diff	60	same	0	10455
EMT	59	18	f	PSYC4802-20142	1.0	Block	practice	8	20140425.104833	diff	100	same	0	12687
EMT	59	18	f	PSYC4802-20142	1.0	Block	practice	9	20140425.104847	same	60	same	1	7379
EMT	59	18	f	PSYC4802-20142	1.0	Block	practice	10	20140425.104857	same	20	same	1	6974
EMT	59	18	f	PSYC4802-20142	1.0	Block	practice	11	20140425.104906	same	100	diff	0	3803
EMT	59	18	f	PSYC4802-20142	1.0	Block	practice	12	20140425.104912	same	100	diff	0	8345
EMT	59	18	f	PSYC4802-20142	1.0	Block	practice	13	20140425.104922	same	60	same	1	9434
EMT	59	18	f	PSYC4802-20142	1.0	Block	practice	14	20140425.104933	same	20	same	1	4548
EMT	59	18	f	PSYC4802-20142	1.0	Block	practice	15	20140425.104940	diff	60	diff	1	2839
EMT	59	18	f	PSYC4802-20142	1.0	Block	practice	16	20140425.104945	diff	100	diff	1	5826
EMT	59	18	f	PSYC4802-20142	1.0	Block	practice	17	20140425.104953	diff	20	diff	1	6429
EMT	59	18	f	PSYC4802-20142	1.0	Block	practice	18	20140425.105001	same	100	diff	0	4191
EMT	59	18	f	PSYC4802-20142	1.0	Block	practice	19	20140425.105007	same	20	same	1	5023
EMT	59	18	f	PSYC4802-20142	1.0	Block	practice	20	20140425.105014	diff	20	same	0	5954
EMT	59	18	f	PSYC4802-20142	1.0	Block	practice	21	20140425.105022	same	20	same	1	3007
EMT	59	18	f	PSYC4802-20142	1.0	Block	practice	22	20140425.105027	diff	100	diff	1	2362
EMT	59	18	f	PSYC4802-20142	1.0	Block	practice	23	20140425.105031	same	100	same	1	4378
EMT	59	18	f	PSYC4802-20142	1.0	Block	practice	24	20140425.105038	same	60	diff	0	2544
EMT	59	18	f	PSYC4802-20142	1.0	Block	practice	25	20140425.105042	diff	20	diff	1	7091
EMT	59	18	f	PSYC4802-20142	1.0	Block	practice	26	20140425.105051	same	60	same	1	2268
EMT	59	18	f	PSYC4802-20142	1.0	Block	practice	27	20140425.105056	diff	60	diff	1	4290
EMT	59	18	f	PSYC4802-20142	1.0	Block	practice	28	20140425.105102	same	100	same	1	6007
EMT	59	18	f	PSYC4802-20142	1.0	Block	practice	29	20140425.105110	diff	100	diff	1	5497
EMT	59	18	f	PSYC4802-20142	1.0	Block	practice	30	20140425.105118	diff	20	diff	1	1812
EMT	59	18	f	PSYC4802-20142	1.0	Block	exp	31	20140425.105121	same	100	same	1	5046
EMT	59	18	f	PSYC4802-20142	1.0	Block	exp	32	20140425.105128	same	60	same	1	3165
EMT	59	18	f	PSYC4802-20142	1.0	Block	exp	33	20140425.105134	diff	60	diff	1	2275
EMT	59	18	f	PSYC4802-20142	1.0	Block	exp	34	20140425.105138	same	100	same	1	4208
EMT	59	18	f	PSYC4802-20142	1.0	Block	exp	35	20140425.105144	same	100	same	1	5492
EMT	59	18	f	PSYC4802-20142	1.0	Block	exp	36	20140425.105152	diff	20	diff	1	5977
EMT	59	18	f	PSYC4802-20142	1.0	Block	exp	37	20140425.105200	diff	20	same	0	2673
EMT	59	18	f	PSYC4802-20142	1.0	Block	exp	38	20140425.105204	diff	100	same	0	3270
EMT	59	18	f	PSYC4802-20142	1.0	Block	exp	39	20140425.105209	same	20	same	1	745
EMT	59	18	f	PSYC4802-20142	1.0	Block	exp	40	20140425.105212	same	60	diff	0	5708
EMT	59	18	f	PSYC4802-20142	1.0	Block	exp	41	20140425.105220	diff	60	diff	1	3698
EMT	59	18	f	PSYC4802-20142	1.0	Block	exp	42	20140425.105226	diff	100	diff	1	4712
EMT	59	18	f	PSYC4802-20142	1.0	Block	exp	43	20140425.105232	same	100	diff	0	4583
EMT	59	18	f	PSYC4802-20142	1.0	Block	exp	44	20140425.105239	same	60	same	1	4055
EMT	59	18	f	PSYC4802-20142	1.0	Block	exp	45	20140425.105245	same	60	same	1	2210
EMT	59	18	f	PSYC4802-20142	1.0	Block	exp	46	20140425.105249	diff	20	diff	1	5568
EMT	59	18	f	PSYC4802-20142	1.0	Block	exp	47	20140425.105257	diff	100	diff	1	3001
EMT	59	18	f	PSYC4802-20142	1.0	Block	exp	48	20140425.105302	same	20	same	1	2755
EMT	59	18	f	PSYC4802-20142	1.0	Block	exp	49	20140425.105306	diff	20	diff	1	4478
EMT	59	18	f	PSYC4802-20142	1.0	Block	exp	50	20140425.105313	diff	100	diff	1	5403
EMT	59	18	f	PSYC4802-20142	1.0	Block	exp	51	20140425.105325	diff	60	diff	1	3101
EMT	59	18	f	PSYC4802-20142	1.0	Block	exp	52	20140425.105331	diff	100	diff	1	2509
EMT	59	18	f	PSYC4802-20142	1.0	Block	exp	53	20140425.105335	diff	60	same	0	3236
EMT	59	18	f	PSYC4802-20142	1.0	Block	exp	54	20140425.105340	same	100	diff	0	3610
EMT	59	18	f	PSYC4802-20142	1.0	Block	exp	55	20140425.105346	same	60	same	1	4906
EMT	59	18	f	PSYC4802-20142	1.0	Block	exp	56	20140425.105353	diff	100	diff	1	1969
EMT	59	18	f	PSYC4802-20142	1.0	Block	exp	57	20140425.105357	diff	20	diff	1	3933
EMT	59	18	f	PSYC4802-20142	1.0	Block	exp	58	20140425.105403	diff	20	diff	1	3681
EMT	59	18	f	PSYC4802-20142	1.0	Block	exp	59	20140425.105409	same	20	same	1	3739
EMT	59	18	f	PSYC4802-20142	1.0	Block	exp	60	20140425.105414	diff	20	diff	1	3523
EMT	59	18	f	PSYC4802-20142	1.0	Block	exp	61	20140425.105420	same	60	same	1	3581
EMT	59	18	f	PSYC4802-20142	1.0	Block	exp	62	20140425.105426	diff	20	same	0	4349
EMT	59	18	f	PSYC4802-20142	1.0	Block	exp	63	20140425.105432	diff	60	diff	1	1841
EMT	59	18	f	PSYC4802-20142	1.0	Block	exp	64	20140425.105436	same	60	same	1	4325
EMT	59	18	f	PSYC4802-20142	1.0	Block	exp	65	20140425.105442	diff	60	diff	1	3153
EMT	59	18	f	PSYC4802-20142	1.0	Block	exp	66	20140425.105447	diff	100	same	0	3945
EMT	59	18	f	PSYC4802-20142	1.0	Block	exp	67	20140425.105453	diff	20	same	0	1935
EMT	59	18	f	PSYC4802-20142	1.0	Block	exp	68	20140425.105457	diff	60	same	0	1126
EMT	59	18	f	PSYC4802-20142	1.0	Block	exp	69	20140425.105501	diff	100	same	0	429
EMT	59	18	f	PSYC4802-20142	1.0	Block	exp	70	20140425.105503	diff	20	same	0	3101
EMT	59	18	f	PSYC4802-20142	1.0	Block	exp	71	20140425.105508	diff	60	same	0	3939
EMT	59	18	f	PSYC4802-20142	1.0	Block	exp	72	20140425.105514	same	60	same	1	2837
EMT	59	18	f	PSYC4802-20142	1.0	Block	exp	73	20140425.105519	same	20	same	1	2773
EMT	59	18	f	PSYC4802-20142	1.0	Block	exp	74	20140425.105524	same	60	diff	0	3318
EMT	59	18	f	PSYC4802-20142	1.0	Block	exp	75	20140425.105529	same	20	same	1	2561
EMT	59	18	f	PSYC4802-20142	1.0	Block	exp	76	20140425.105534	diff	100	same	0	2069
EMT	59	18	f	PSYC4802-20142	1.0	Block	exp	77	20140425.105538	diff	60	diff	1	5772
EMT	59	18	f	PSYC4802-20142	1.0	Block	exp	78	20140425.105546	diff	60	diff	1	4906
EMT	59	18	f	PSYC4802-20142	1.0	Block	exp	79	20140425.105553	diff	60	diff	1	3881
EMT	59	18	f	PSYC4802-20142	1.0	Block	exp	80	20140425.105558	diff	60	diff	1	1934
EMT	59	18	f	PSYC4802-20142	1.0	Block	exp	81	20140425.105602	diff	20	diff	1	1554
EMT	59	18	f	PSYC4802-20142	1.0	Block	exp	82	20140425.105606	diff	20	diff	1	3078
EMT	59	18	f	PSYC4802-20142	1.0	Block	exp	83	20140425.105611	same	100	same	1	2468
EMT	59	18	f	PSYC4802-20142	1.0	Block	exp	84	20140425.105615	same	100	same	1	1361
EMT	59	18	f	PSYC4802-20142	1.0	Block	exp	85	20140425.105619	same	20	same	1	1168
EMT	59	18	f	PSYC4802-20142	1.0	Block	exp	86	20140425.105622	same	100	diff	0	991
EMT	59	18	f	PSYC4802-20142	1.0	Block	exp	87	20140425.105625	diff	100	diff	1	1255
EMT	59	18	f	PSYC4802-20142	1.0	Block	exp	88	20140425.105628	same	100	diff	0	2744
EMT	59	18	f	PSYC4802-20142	1.0	Block	exp	89	20140425.105633	same	60	same	1	2825
EMT	59	18	f	PSYC4802-20142	1.0	Block	exp	90	20140425.105638	same	20	same	1	2087
EMT	59	18	f	PSYC4802-20142	1.0	Block	exp	91	20140425.105642	same	100	diff	0	1625
EMT	59	18	f	PSYC4802-20142	1.0	Block	exp	92	20140425.105645	same	60	same	1	2087
EMT	59	18	f	PSYC4802-20142	1.0	Block	exp	93	20140425.105649	same	20	same	1	2070
EMT	59	18	f	PSYC4802-20142	1.0	Block	exp	94	20140425.105653	diff	100	diff	1	3581
EMT	59	18	f	PSYC4802-20142	1.0	Block	exp	95	20140425.105659	same	60	same	1	1607
EMT	59	18	f	PSYC4802-20142	1.0	Block	exp	96	20140425.105703	same	20	diff	0	2626
EMT	59	18	f	PSYC4802-20142	1.0	Block	exp	97	20140425.105707	same	100	same	1	2040
EMT	59	18	f	PSYC4802-20142	1.0	Block	exp	98	20140425.105711	same	60	same	1	1425
EMT	59	18	f	PSYC4802-20142	1.0	Block	exp	99	20140425.105715	same	60	diff	0	1888
EMT	59	18	f	PSYC4802-20142	1.0	Block	exp	100	20140425.105719	same	20	same	1	1912
EMT	59	18	f	PSYC4802-20142	1.0	Block	exp	101	20140425.105729	same	60	diff	0	2538
EMT	59	18	f	PSYC4802-20142	1.0	Block	exp	102	20140425.105733	diff	60	same	0	1748
EMT	59	18	f	PSYC4802-20142	1.0	Block	exp	103	20140425.105737	diff	100	same	0	2158
EMT	59	18	f	PSYC4802-20142	1.0	Block	exp	104	20140425.105741	same	100	same	1	2164
EMT	59	18	f	PSYC4802-20142	1.0	Block	exp	105	20140425.105745	diff	100	same	0	1278
EMT	59	18	f	PSYC4802-20142	1.0	Block	exp	106	20140425.105748	same	20	same	1	1934
EMT	59	18	f	PSYC4802-20142	1.0	Block	exp	107	20140425.105752	diff	20	diff	1	2514
EMT	59	18	f	PSYC4802-20142	1.0	Block	exp	108	20140425.105757	same	60	diff	0	1671
EMT	59	18	f	PSYC4802-20142	1.0	Block	exp	109	20140425.105801	same	100	diff	0	1641
EMT	59	18	f	PSYC4802-20142	1.0	Block	exp	110	20140425.105804	diff	100	diff	1	1707
EMT	59	18	f	PSYC4802-20142	1.0	Block	exp	111	20140425.105808	diff	60	same	0	1876
EMT	59	18	f	PSYC4802-20142	1.0	Block	exp	112	20140425.105812	diff	20	diff	1	1226
EMT	59	18	f	PSYC4802-20142	1.0	Block	exp	113	20140425.105815	same	100	same	1	1290
EMT	59	18	f	PSYC4802-20142	1.0	Block	exp	114	20140425.105818	same	20	same	1	1414
EMT	59	18	f	PSYC4802-20142	1.0	Block	exp	115	20140425.105822	same	20	same	1	1079
EMT	59	18	f	PSYC4802-20142	1.0	Block	exp	116	20140425.105825	diff	100	same	0	1056
EMT	59	18	f	PSYC4802-20142	1.0	Block	exp	117	20140425.105828	same	100	diff	0	1079
EMT	59	18	f	PSYC4802-20142	1.0	Block	exp	118	20140425.105831	same	60	same	1	1747
EMT	59	18	f	PSYC4802-20142	1.0	Block	exp	119	20140425.105835	same	20	same	1	1109
EMT	59	18	f	PSYC4802-20142	1.0	Block	exp	120	20140425.105838	same	20	same	1	1501
EMT	59	18	f	PSYC4802-20142	1.0	Block	exp	121	20140425.105841	diff	20	same	0	1940
EMT	59	18	f	PSYC4802-20142	1.0	Block	exp	122	20140425.105845	diff	100	diff	1	1425
EMT	59	18	f	PSYC4802-20142	1.0	Block	exp	123	20140425.105849	same	20	same	1	1179
EMT	59	18	f	PSYC4802-20142	1.0	Block	exp	124	20140425.105852	diff	60	diff	1	1255
EMT	59	18	f	PSYC4802-20142	1.0	Block	exp	125	20140425.105855	diff	20	same	0	1899
EMT	59	18	f	PSYC4802-20142	1.0	Block	exp	126	20140425.105859	same	60	same	1	1220
EMT	59	18	f	PSYC4802-20142	1.0	Block	exp	127	20140425.105902	same	20	same	1	880
EMT	59	18	f	PSYC4802-20142	1.0	Block	exp	128	20140425.105905	diff	20	diff	1	1149
EMT	59	18	f	PSYC4802-20142	1.0	Block	exp	129	20140425.105908	same	100	diff	0	1132
EMT	59	18	f	PSYC4802-20142	1.0	Block	exp	130	20140425.105911	diff	20	diff	1	992
EMT	59	18	f	PSYC4802-20142	1.0	Block	exp	131	20140425.105914	same	20	same	1	833
EMT	59	18	f	PSYC4802-20142	1.0	Block	exp	132	20140425.105917	diff	100	diff	1	968
EMT	59	18	f	PSYC4802-20142	1.0	Block	exp	133	20140425.105920	diff	60	same	0	798
EMT	59	18	f	PSYC4802-20142	1.0	Block	exp	134	20140425.105923	same	100	diff	0	1477
EMT	59	18	f	PSYC4802-20142	1.0	Block	exp	135	20140425.105926	same	100	diff	0	745
EMT	59	18	f	PSYC4802-20142	1.0	Block	exp	136	20140425.105929	diff	60	same	0	979
EMT	59	18	f	PSYC4802-20142	1.0	Block	exp	137	20140425.105932	same	60	diff	0	1430
EMT	59	18	f	PSYC4802-20142	1.0	Block	exp	138	20140425.105935	same	20	same	1	2550
EMT	59	18	f	PSYC4802-20142	1.0	Block	exp	139	20140425.105940	diff	100	same	0	1466
EMT	59	18	f	PSYC4802-20142	1.0	Block	exp	140	20140425.105943	diff	100	diff	1	2204
EMT	59	18	f	PSYC4802-20142	1.0	Block	exp	141	20140425.105947	same	100	same	1	2533
EMT	59	18	f	PSYC4802-20142	1.0	Block	exp	142	20140425.105952	same	20	same	1	2187
EMT	59	18	f	PSYC4802-20142	1.0	Block	exp	143	20140425.105956	diff	20	diff	1	1776
EMT	59	18	f	PSYC4802-20142	1.0	Block	exp	144	20140425.110000	diff	60	same	0	1454
EMT	59	18	f	PSYC4802-20142	1.0	Block	exp	145	20140425.110003	same	100	same	1	3259
EMT	59	18	f	PSYC4802-20142	1.0	Block	exp	146	20140425.110008	same	60	same	1	1525
EMT	59	18	f	PSYC4802-20142	1.0	Block	exp	147	20140425.110012	diff	20	diff	1	1144
EMT	59	18	f	PSYC4802-20142	1.0	Block	exp	148	20140425.110015	diff	100	same	0	1337
EMT	59	18	f	PSYC4802-20142	1.0	Block	exp	149	20140425.110018	diff	60	same	0	1003
EMT	59	18	f	PSYC4802-20142	1.0	Block	exp	150	20140425.110021	diff	60	diff	1	2673
