Experimenter	Subject	Age	Sex	Experiment	Version	Block	TrialType	Trial	Timestamp	SameDiff	Rotation	Response	Acc	RT
JJ	222	29	F	PSYC4802-20144	1.0	Block	practice	1	20141013.105315	diff	100	same	0	8582
JJ	222	29	F	PSYC4802-20144	1.0	Block	practice	2	20141013.105326	diff	60	diff	1	5976
JJ	222	29	F	PSYC4802-20144	1.0	Block	practice	3	20141013.105334	diff	60	same	0	8867
JJ	222	29	F	PSYC4802-20144	1.0	Block	practice	4	20141013.105345	diff	20	diff	1	13726
JJ	222	29	F	PSYC4802-20144	1.0	Block	practice	5	20141013.105401	same	60	same	1	8286
JJ	222	29	F	PSYC4802-20144	1.0	Block	practice	6	20141013.105411	diff	20	same	0	9242
JJ	222	29	F	PSYC4802-20144	1.0	Block	practice	7	20141013.105422	same	60	same	1	9326
JJ	222	29	F	PSYC4802-20144	1.0	Block	practice	8	20141013.105434	diff	20	same	0	14637
JJ	222	29	F	PSYC4802-20144	1.0	Block	practice	9	20141013.105450	diff	60	diff	1	10417
JJ	222	29	F	PSYC4802-20144	1.0	Block	practice	10	20141013.105503	diff	60	diff	1	5857
JJ	222	29	F	PSYC4802-20144	1.0	Block	practice	11	20141013.105511	same	100	diff	0	7026
JJ	222	29	F	PSYC4802-20144	1.0	Block	practice	12	20141013.105520	diff	20	diff	1	5511
JJ	222	29	F	PSYC4802-20144	1.0	Block	practice	13	20141013.105527	diff	20	same	0	6631
JJ	222	29	F	PSYC4802-20144	1.0	Block	practice	14	20141013.105536	same	20	same	1	6901
JJ	222	29	F	PSYC4802-20144	1.0	Block	practice	15	20141013.105545	diff	100	diff	1	4976
JJ	222	29	F	PSYC4802-20144	1.0	Block	practice	16	20141013.105552	diff	100	diff	1	4381
JJ	222	29	F	PSYC4802-20144	1.0	Block	practice	17	20141013.105558	same	20	same	1	4641
JJ	222	29	F	PSYC4802-20144	1.0	Block	practice	18	20141013.105605	same	20	same	1	5227
JJ	222	29	F	PSYC4802-20144	1.0	Block	practice	19	20141013.105612	same	60	same	1	7667
JJ	222	29	F	PSYC4802-20144	1.0	Block	practice	20	20141013.105622	same	60	same	1	4251
JJ	222	29	F	PSYC4802-20144	1.0	Block	practice	21	20141013.105628	same	20	same	1	3236
JJ	222	29	F	PSYC4802-20144	1.0	Block	practice	22	20141013.105633	diff	100	diff	1	5181
JJ	222	29	F	PSYC4802-20144	1.0	Block	practice	23	20141013.105640	same	100	same	1	9166
JJ	222	29	F	PSYC4802-20144	1.0	Block	practice	24	20141013.105652	same	100	diff	0	4851
JJ	222	29	F	PSYC4802-20144	1.0	Block	practice	25	20141013.105658	diff	60	diff	1	6227
JJ	222	29	F	PSYC4802-20144	1.0	Block	practice	26	20141013.105707	same	100	same	1	6826
JJ	222	29	F	PSYC4802-20144	1.0	Block	practice	27	20141013.105716	diff	100	diff	1	8446
JJ	222	29	F	PSYC4802-20144	1.0	Block	practice	28	20141013.105726	same	60	same	1	4057
JJ	222	29	F	PSYC4802-20144	1.0	Block	practice	29	20141013.105732	same	100	same	1	8866
JJ	222	29	F	PSYC4802-20144	1.0	Block	practice	30	20141013.105743	same	20	same	1	3796
JJ	222	29	F	PSYC4802-20144	1.0	Block	exp	31	20141013.105749	same	60	same	1	10482
JJ	222	29	F	PSYC4802-20144	1.0	Block	exp	32	20141013.105801	diff	20	same	0	5407
JJ	222	29	F	PSYC4802-20144	1.0	Block	exp	33	20141013.105809	same	20	same	1	3081
JJ	222	29	F	PSYC4802-20144	1.0	Block	exp	34	20141013.105814	diff	20	diff	1	6387
JJ	222	29	F	PSYC4802-20144	1.0	Block	exp	35	20141013.105822	same	20	same	1	5927
JJ	222	29	F	PSYC4802-20144	1.0	Block	exp	36	20141013.105830	same	100	diff	0	5946
JJ	222	29	F	PSYC4802-20144	1.0	Block	exp	37	20141013.105838	diff	60	same	0	4322
JJ	222	29	F	PSYC4802-20144	1.0	Block	exp	38	20141013.105845	same	100	same	1	9347
JJ	222	29	F	PSYC4802-20144	1.0	Block	exp	39	20141013.105856	diff	20	diff	1	6282
JJ	222	29	F	PSYC4802-20144	1.0	Block	exp	40	20141013.105904	diff	20	diff	1	5021
JJ	222	29	F	PSYC4802-20144	1.0	Block	exp	41	20141013.105911	same	60	same	1	6002
JJ	222	29	F	PSYC4802-20144	1.0	Block	exp	42	20141013.105919	diff	20	diff	1	7232
JJ	222	29	F	PSYC4802-20144	1.0	Block	exp	43	20141013.105929	same	60	diff	0	3396
JJ	222	29	F	PSYC4802-20144	1.0	Block	exp	44	20141013.105934	diff	20	diff	1	5336
JJ	222	29	F	PSYC4802-20144	1.0	Block	exp	45	20141013.105941	diff	60	diff	1	4616
JJ	222	29	F	PSYC4802-20144	1.0	Block	exp	46	20141013.105948	diff	20	diff	1	5912
JJ	222	29	F	PSYC4802-20144	1.0	Block	exp	47	20141013.105956	same	20	same	1	3811
JJ	222	29	F	PSYC4802-20144	1.0	Block	exp	48	20141013.110002	same	20	same	1	4041
JJ	222	29	F	PSYC4802-20144	1.0	Block	exp	49	20141013.110008	same	20	same	1	3701
JJ	222	29	F	PSYC4802-20144	1.0	Block	exp	50	20141013.110014	same	100	diff	0	3321
JJ	222	29	F	PSYC4802-20144	1.0	Block	exp	51	20141013.110030	same	20	same	1	5101
JJ	222	29	F	PSYC4802-20144	1.0	Block	exp	52	20141013.110037	same	60	same	1	5141
JJ	222	29	F	PSYC4802-20144	1.0	Block	exp	53	20141013.110044	same	100	diff	0	4181
JJ	222	29	F	PSYC4802-20144	1.0	Block	exp	54	20141013.110051	same	100	same	1	7351
JJ	222	29	F	PSYC4802-20144	1.0	Block	exp	55	20141013.110100	diff	20	diff	1	3146
JJ	222	29	F	PSYC4802-20144	1.0	Block	exp	56	20141013.110105	diff	60	diff	1	3782
JJ	222	29	F	PSYC4802-20144	1.0	Block	exp	57	20141013.110111	same	60	same	1	4381
JJ	222	29	F	PSYC4802-20144	1.0	Block	exp	58	20141013.110117	same	60	diff	0	2646
JJ	222	29	F	PSYC4802-20144	1.0	Block	exp	59	20141013.110122	same	60	same	1	6466
JJ	222	29	F	PSYC4802-20144	1.0	Block	exp	60	20141013.110131	diff	60	same	0	6516
JJ	222	29	F	PSYC4802-20144	1.0	Block	exp	61	20141013.110139	same	100	same	1	6836
JJ	222	29	F	PSYC4802-20144	1.0	Block	exp	62	20141013.110148	same	20	same	1	3636
JJ	222	29	F	PSYC4802-20144	1.0	Block	exp	63	20141013.110154	same	20	same	1	2676
JJ	222	29	F	PSYC4802-20144	1.0	Block	exp	64	20141013.110158	diff	60	diff	1	2211
JJ	222	29	F	PSYC4802-20144	1.0	Block	exp	65	20141013.110203	same	20	same	1	2391
JJ	222	29	F	PSYC4802-20144	1.0	Block	exp	66	20141013.110207	same	100	same	1	6821
JJ	222	29	F	PSYC4802-20144	1.0	Block	exp	67	20141013.110216	same	60	same	1	5281
JJ	222	29	F	PSYC4802-20144	1.0	Block	exp	68	20141013.110223	same	20	same	1	4402
JJ	222	29	F	PSYC4802-20144	1.0	Block	exp	69	20141013.110229	diff	100	same	0	5646
JJ	222	29	F	PSYC4802-20144	1.0	Block	exp	70	20141013.110237	same	60	same	1	4341
JJ	222	29	F	PSYC4802-20144	1.0	Block	exp	71	20141013.110243	same	60	same	1	4861
JJ	222	29	F	PSYC4802-20144	1.0	Block	exp	72	20141013.110250	diff	100	diff	1	2091
JJ	222	29	F	PSYC4802-20144	1.0	Block	exp	73	20141013.110255	diff	100	diff	1	2561
JJ	222	29	F	PSYC4802-20144	1.0	Block	exp	74	20141013.110259	diff	100	diff	1	4586
JJ	222	29	F	PSYC4802-20144	1.0	Block	exp	75	20141013.110306	diff	20	diff	1	3836
JJ	222	29	F	PSYC4802-20144	1.0	Block	exp	76	20141013.110312	same	60	diff	0	3076
JJ	222	29	F	PSYC4802-20144	1.0	Block	exp	77	20141013.110317	same	20	same	1	4071
JJ	222	29	F	PSYC4802-20144	1.0	Block	exp	78	20141013.110323	same	20	same	1	3451
JJ	222	29	F	PSYC4802-20144	1.0	Block	exp	79	20141013.110328	same	100	diff	0	2216
JJ	222	29	F	PSYC4802-20144	1.0	Block	exp	80	20141013.110332	diff	100	same	0	3476
JJ	222	29	F	PSYC4802-20144	1.0	Block	exp	81	20141013.110338	same	60	same	1	5977
JJ	222	29	F	PSYC4802-20144	1.0	Block	exp	82	20141013.110346	diff	100	diff	1	4162
JJ	222	29	F	PSYC4802-20144	1.0	Block	exp	83	20141013.110352	diff	100	same	0	8121
JJ	222	29	F	PSYC4802-20144	1.0	Block	exp	84	20141013.110402	diff	20	same	0	5881
JJ	222	29	F	PSYC4802-20144	1.0	Block	exp	85	20141013.110410	same	20	same	1	3456
JJ	222	29	F	PSYC4802-20144	1.0	Block	exp	86	20141013.110416	same	100	same	1	4271
JJ	222	29	F	PSYC4802-20144	1.0	Block	exp	87	20141013.110422	same	100	same	1	7816
JJ	222	29	F	PSYC4802-20144	1.0	Block	exp	88	20141013.110432	diff	60	diff	1	4102
JJ	222	29	F	PSYC4802-20144	1.0	Block	exp	89	20141013.110438	diff	100	same	0	6132
JJ	222	29	F	PSYC4802-20144	1.0	Block	exp	90	20141013.110446	diff	60	diff	1	4211
JJ	222	29	F	PSYC4802-20144	1.0	Block	exp	91	20141013.110452	same	100	same	1	6571
JJ	222	29	F	PSYC4802-20144	1.0	Block	exp	92	20141013.110501	diff	20	diff	1	4571
JJ	222	29	F	PSYC4802-20144	1.0	Block	exp	93	20141013.110508	diff	60	diff	1	4392
JJ	222	29	F	PSYC4802-20144	1.0	Block	exp	94	20141013.110514	diff	100	diff	1	3621
JJ	222	29	F	PSYC4802-20144	1.0	Block	exp	95	20141013.110520	diff	100	diff	1	4056
JJ	222	29	F	PSYC4802-20144	1.0	Block	exp	96	20141013.110526	same	100	same	1	5976
JJ	222	29	F	PSYC4802-20144	1.0	Block	exp	97	20141013.110534	diff	100	same	0	4352
JJ	222	29	F	PSYC4802-20144	1.0	Block	exp	98	20141013.110540	diff	60	diff	1	7612
JJ	222	29	F	PSYC4802-20144	1.0	Block	exp	99	20141013.110550	same	20	same	1	3718
JJ	222	29	F	PSYC4802-20144	1.0	Block	exp	100	20141013.110556	diff	100	diff	1	4331
JJ	222	29	F	PSYC4802-20144	1.0	Block	exp	101	20141013.110612	same	60	same	1	3547
JJ	222	29	F	PSYC4802-20144	1.0	Block	exp	102	20141013.110617	diff	20	diff	1	5841
JJ	222	29	F	PSYC4802-20144	1.0	Block	exp	103	20141013.110625	same	60	same	1	4701
JJ	222	29	F	PSYC4802-20144	1.0	Block	exp	104	20141013.110632	diff	60	diff	1	7061
JJ	222	29	F	PSYC4802-20144	1.0	Block	exp	105	20141013.110641	diff	60	diff	1	3346
JJ	222	29	F	PSYC4802-20144	1.0	Block	exp	106	20141013.110647	diff	100	diff	1	4961
JJ	222	29	F	PSYC4802-20144	1.0	Block	exp	107	20141013.110654	diff	60	diff	1	6577
JJ	222	29	F	PSYC4802-20144	1.0	Block	exp	108	20141013.110702	diff	100	diff	1	5352
JJ	222	29	F	PSYC4802-20144	1.0	Block	exp	109	20141013.110710	diff	20	same	0	4952
JJ	222	29	F	PSYC4802-20144	1.0	Block	exp	110	20141013.110717	same	100	same	1	4571
JJ	222	29	F	PSYC4802-20144	1.0	Block	exp	111	20141013.110723	diff	20	diff	1	5156
JJ	222	29	F	PSYC4802-20144	1.0	Block	exp	112	20141013.110730	diff	20	diff	1	4366
JJ	222	29	F	PSYC4802-20144	1.0	Block	exp	113	20141013.110737	same	20	same	1	4041
JJ	222	29	F	PSYC4802-20144	1.0	Block	exp	114	20141013.110743	same	100	same	1	7246
JJ	222	29	F	PSYC4802-20144	1.0	Block	exp	115	20141013.110752	same	100	same	1	4562
JJ	222	29	F	PSYC4802-20144	1.0	Block	exp	116	20141013.110759	same	100	same	1	5941
JJ	222	29	F	PSYC4802-20144	1.0	Block	exp	117	20141013.110807	diff	100	same	0	4251
JJ	222	29	F	PSYC4802-20144	1.0	Block	exp	118	20141013.110813	diff	60	diff	1	3987
JJ	222	29	F	PSYC4802-20144	1.0	Block	exp	119	20141013.110819	diff	60	diff	1	3962
JJ	222	29	F	PSYC4802-20144	1.0	Block	exp	120	20141013.110825	diff	100	diff	1	2036
JJ	222	29	F	PSYC4802-20144	1.0	Block	exp	121	20141013.110829	same	20	same	1	3017
JJ	222	29	F	PSYC4802-20144	1.0	Block	exp	122	20141013.110834	diff	60	diff	1	3351
JJ	222	29	F	PSYC4802-20144	1.0	Block	exp	123	20141013.110840	diff	60	diff	1	7292
JJ	222	29	F	PSYC4802-20144	1.0	Block	exp	124	20141013.110849	same	20	same	1	3256
JJ	222	29	F	PSYC4802-20144	1.0	Block	exp	125	20141013.110854	same	60	same	1	4516
JJ	222	29	F	PSYC4802-20144	1.0	Block	exp	126	20141013.110901	diff	100	diff	1	3191
JJ	222	29	F	PSYC4802-20144	1.0	Block	exp	127	20141013.110906	same	60	diff	0	5936
JJ	222	29	F	PSYC4802-20144	1.0	Block	exp	128	20141013.110914	diff	100	same	0	3791
JJ	222	29	F	PSYC4802-20144	1.0	Block	exp	129	20141013.110920	same	60	diff	0	4821
JJ	222	29	F	PSYC4802-20144	1.0	Block	exp	130	20141013.110927	same	20	same	1	2676
JJ	222	29	F	PSYC4802-20144	1.0	Block	exp	131	20141013.110931	diff	60	diff	1	3481
JJ	222	29	F	PSYC4802-20144	1.0	Block	exp	132	20141013.110937	diff	20	diff	1	4682
JJ	222	29	F	PSYC4802-20144	1.0	Block	exp	133	20141013.110944	same	100	same	1	7546
JJ	222	29	F	PSYC4802-20144	1.0	Block	exp	134	20141013.110953	same	20	same	1	4051
JJ	222	29	F	PSYC4802-20144	1.0	Block	exp	135	20141013.110959	diff	100	diff	1	6182
JJ	222	29	F	PSYC4802-20144	1.0	Block	exp	136	20141013.111007	diff	20	same	0	5081
JJ	222	29	F	PSYC4802-20144	1.0	Block	exp	137	20141013.111014	diff	20	diff	1	2266
JJ	222	29	F	PSYC4802-20144	1.0	Block	exp	138	20141013.111019	diff	100	diff	1	3636
JJ	222	29	F	PSYC4802-20144	1.0	Block	exp	139	20141013.111024	diff	60	diff	1	4786
JJ	222	29	F	PSYC4802-20144	1.0	Block	exp	140	20141013.111031	diff	60	diff	1	6602
JJ	222	29	F	PSYC4802-20144	1.0	Block	exp	141	20141013.111040	same	100	diff	0	3971
JJ	222	29	F	PSYC4802-20144	1.0	Block	exp	142	20141013.111046	same	60	same	1	3536
JJ	222	29	F	PSYC4802-20144	1.0	Block	exp	143	20141013.111051	diff	60	diff	1	4696
JJ	222	29	F	PSYC4802-20144	1.0	Block	exp	144	20141013.111058	diff	20	diff	1	4807
JJ	222	29	F	PSYC4802-20144	1.0	Block	exp	145	20141013.111105	same	20	diff	0	3896
JJ	222	29	F	PSYC4802-20144	1.0	Block	exp	146	20141013.111111	same	60	same	1	2981
JJ	222	29	F	PSYC4802-20144	1.0	Block	exp	147	20141013.111116	same	100	same	1	6036
JJ	222	29	F	PSYC4802-20144	1.0	Block	exp	148	20141013.111124	diff	20	diff	1	3181
JJ	222	29	F	PSYC4802-20144	1.0	Block	exp	149	20141013.111129	same	100	diff	0	2786
JJ	222	29	F	PSYC4802-20144	1.0	Block	exp	150	20141013.111134	same	60	same	1	7432
