Experimenter	Subject	Age	Sex	Experiment	Version	Block	TrialType	Trial	Timestamp	SameDiff	Rotation	Response	Acc	RT
211	211	27	F	PSYC4802-20144	1.0	Block	practice	1	20140929.111120	same	60	same	1	12577
211	211	27	F	PSYC4802-20144	1.0	Block	practice	2	20140929.111135	same	100	same	1	52430
211	211	27	F	PSYC4802-20144	1.0	Block	practice	3	20140929.111230	diff	20	diff	1	8446
211	211	27	F	PSYC4802-20144	1.0	Block	practice	4	20140929.111240	same	60	same	1	8327
211	211	27	F	PSYC4802-20144	1.0	Block	practice	5	20140929.111251	same	20	same	1	4368
211	211	27	F	PSYC4802-20144	1.0	Block	practice	6	20140929.111257	diff	60	diff	1	3982
211	211	27	F	PSYC4802-20144	1.0	Block	practice	7	20140929.111303	diff	100	diff	1	12552
211	211	27	F	PSYC4802-20144	1.0	Block	practice	8	20140929.111317	diff	100	diff	1	8741
211	211	27	F	PSYC4802-20144	1.0	Block	practice	9	20140929.111328	diff	100	diff	1	25842
211	211	27	F	PSYC4802-20144	1.0	Block	practice	10	20140929.111356	same	100	same	1	8046
211	211	27	F	PSYC4802-20144	1.0	Block	practice	11	20140929.111406	same	20	same	1	5823
211	211	27	F	PSYC4802-20144	1.0	Block	practice	12	20140929.111414	same	20	same	1	5273
211	211	27	F	PSYC4802-20144	1.0	Block	practice	13	20140929.111421	same	60	same	1	3997
211	211	27	F	PSYC4802-20144	1.0	Block	practice	14	20140929.111427	same	100	same	1	7804
211	211	27	F	PSYC4802-20144	1.0	Block	practice	15	20140929.111437	diff	20	diff	1	10172
211	211	27	F	PSYC4802-20144	1.0	Block	practice	16	20140929.111449	same	20	same	1	2942
211	211	27	F	PSYC4802-20144	1.0	Block	practice	17	20140929.111454	same	60	same	1	6201
211	211	27	F	PSYC4802-20144	1.0	Block	practice	18	20140929.111503	diff	60	diff	1	7457
211	211	27	F	PSYC4802-20144	1.0	Block	practice	19	20140929.111512	diff	60	diff	1	5453
211	211	27	F	PSYC4802-20144	1.0	Block	practice	20	20140929.111520	diff	20	diff	1	4092
211	211	27	F	PSYC4802-20144	1.0	Block	practice	21	20140929.111526	diff	60	diff	1	5987
211	211	27	F	PSYC4802-20144	1.0	Block	practice	22	20140929.111534	same	100	same	1	14742
211	211	27	F	PSYC4802-20144	1.0	Block	practice	23	20140929.111550	same	100	diff	0	4616
211	211	27	F	PSYC4802-20144	1.0	Block	practice	24	20140929.111557	diff	20	diff	1	5571
211	211	27	F	PSYC4802-20144	1.0	Block	practice	25	20140929.111605	same	20	same	1	6961
211	211	27	F	PSYC4802-20144	1.0	Block	practice	26	20140929.111614	diff	60	diff	1	2316
211	211	27	F	PSYC4802-20144	1.0	Block	practice	27	20140929.111618	diff	20	diff	1	3872
211	211	27	F	PSYC4802-20144	1.0	Block	practice	28	20140929.111624	diff	100	diff	1	6801
211	211	27	F	PSYC4802-20144	1.0	Block	practice	29	20140929.111633	diff	100	diff	1	3887
211	211	27	F	PSYC4802-20144	1.0	Block	practice	30	20140929.111639	same	60	same	1	8362
211	211	27	F	PSYC4802-20144	1.0	Block	exp	31	20140929.111649	diff	20	diff	1	3112
211	211	27	F	PSYC4802-20144	1.0	Block	exp	32	20140929.111654	same	100	same	1	6948
211	211	27	F	PSYC4802-20144	1.0	Block	exp	33	20140929.111703	diff	100	diff	1	6652
211	211	27	F	PSYC4802-20144	1.0	Block	exp	34	20140929.111712	diff	100	diff	1	4277
211	211	27	F	PSYC4802-20144	1.0	Block	exp	35	20140929.111718	same	20	same	1	4992
211	211	27	F	PSYC4802-20144	1.0	Block	exp	36	20140929.111725	same	60	same	1	5177
211	211	27	F	PSYC4802-20144	1.0	Block	exp	37	20140929.111732	same	100	same	1	6471
211	211	27	F	PSYC4802-20144	1.0	Block	exp	38	20140929.111740	diff	20	diff	1	4946
211	211	27	F	PSYC4802-20144	1.0	Block	exp	39	20140929.111747	same	60	same	1	7603
211	211	27	F	PSYC4802-20144	1.0	Block	exp	40	20140929.111757	diff	60	diff	1	7842
211	211	27	F	PSYC4802-20144	1.0	Block	exp	41	20140929.111807	diff	20	diff	1	10743
211	211	27	F	PSYC4802-20144	1.0	Block	exp	42	20140929.111820	same	100	same	1	7432
211	211	27	F	PSYC4802-20144	1.0	Block	exp	43	20140929.111829	same	20	same	1	4897
211	211	27	F	PSYC4802-20144	1.0	Block	exp	44	20140929.111836	same	20	same	1	3577
211	211	27	F	PSYC4802-20144	1.0	Block	exp	45	20140929.111842	same	100	same	1	9292
211	211	27	F	PSYC4802-20144	1.0	Block	exp	46	20140929.111853	diff	100	diff	1	7047
211	211	27	F	PSYC4802-20144	1.0	Block	exp	47	20140929.111902	same	60	same	1	5507
211	211	27	F	PSYC4802-20144	1.0	Block	exp	48	20140929.111909	same	100	same	1	6161
211	211	27	F	PSYC4802-20144	1.0	Block	exp	49	20140929.111918	same	100	same	1	9047
211	211	27	F	PSYC4802-20144	1.0	Block	exp	50	20140929.111929	diff	20	diff	1	4326
211	211	27	F	PSYC4802-20144	1.0	Block	exp	51	20140929.111944	diff	20	diff	1	4051
211	211	27	F	PSYC4802-20144	1.0	Block	exp	52	20140929.111950	same	20	same	1	5226
211	211	27	F	PSYC4802-20144	1.0	Block	exp	53	20140929.111957	diff	100	diff	1	3477
211	211	27	F	PSYC4802-20144	1.0	Block	exp	54	20140929.112002	same	20	same	1	3553
211	211	27	F	PSYC4802-20144	1.0	Block	exp	55	20140929.112008	diff	60	diff	1	4167
211	211	27	F	PSYC4802-20144	1.0	Block	exp	56	20140929.112014	diff	100	diff	1	3196
211	211	27	F	PSYC4802-20144	1.0	Block	exp	57	20140929.112019	same	20	diff	0	5531
211	211	27	F	PSYC4802-20144	1.0	Block	exp	58	20140929.112027	diff	20	diff	1	4811
211	211	27	F	PSYC4802-20144	1.0	Block	exp	59	20140929.112034	diff	60	diff	1	3391
211	211	27	F	PSYC4802-20144	1.0	Block	exp	60	20140929.112039	diff	60	diff	1	3882
211	211	27	F	PSYC4802-20144	1.0	Block	exp	61	20140929.112045	same	100	same	1	7212
211	211	27	F	PSYC4802-20144	1.0	Block	exp	62	20140929.112054	same	100	same	1	6651
211	211	27	F	PSYC4802-20144	1.0	Block	exp	63	20140929.112103	diff	60	diff	1	4156
211	211	27	F	PSYC4802-20144	1.0	Block	exp	64	20140929.112109	diff	100	diff	1	2881
211	211	27	F	PSYC4802-20144	1.0	Block	exp	65	20140929.112114	diff	100	diff	1	3671
211	211	27	F	PSYC4802-20144	1.0	Block	exp	66	20140929.112119	diff	20	diff	1	6033
211	211	27	F	PSYC4802-20144	1.0	Block	exp	67	20140929.112127	same	60	diff	0	3547
211	211	27	F	PSYC4802-20144	1.0	Block	exp	68	20140929.112133	diff	100	diff	1	4236
211	211	27	F	PSYC4802-20144	1.0	Block	exp	69	20140929.112139	same	20	same	1	3511
211	211	27	F	PSYC4802-20144	1.0	Block	exp	70	20140929.112145	diff	20	diff	1	5696
211	211	27	F	PSYC4802-20144	1.0	Block	exp	71	20140929.112152	diff	60	diff	1	2956
211	211	27	F	PSYC4802-20144	1.0	Block	exp	72	20140929.112157	same	60	diff	0	6071
211	211	27	F	PSYC4802-20144	1.0	Block	exp	73	20140929.112205	diff	60	diff	1	6413
211	211	27	F	PSYC4802-20144	1.0	Block	exp	74	20140929.112214	diff	20	diff	1	3271
211	211	27	F	PSYC4802-20144	1.0	Block	exp	75	20140929.112219	diff	60	diff	1	8117
211	211	27	F	PSYC4802-20144	1.0	Block	exp	76	20140929.112229	same	20	same	1	4431
211	211	27	F	PSYC4802-20144	1.0	Block	exp	77	20140929.112236	same	60	same	1	5991
211	211	27	F	PSYC4802-20144	1.0	Block	exp	78	20140929.112244	same	60	same	1	4807
211	211	27	F	PSYC4802-20144	1.0	Block	exp	79	20140929.112251	diff	100	diff	1	2211
211	211	27	F	PSYC4802-20144	1.0	Block	exp	80	20140929.112255	same	20	same	1	5262
211	211	27	F	PSYC4802-20144	1.0	Block	exp	81	20140929.112302	diff	20	diff	1	6247
211	211	27	F	PSYC4802-20144	1.0	Block	exp	82	20140929.112310	same	60	same	1	8842
211	211	27	F	PSYC4802-20144	1.0	Block	exp	83	20140929.112321	same	60	same	1	3821
211	211	27	F	PSYC4802-20144	1.0	Block	exp	84	20140929.112327	same	100	same	1	5427
211	211	27	F	PSYC4802-20144	1.0	Block	exp	85	20140929.112334	diff	100	diff	1	4702
211	211	27	F	PSYC4802-20144	1.0	Block	exp	86	20140929.112341	diff	20	diff	1	6567
211	211	27	F	PSYC4802-20144	1.0	Block	exp	87	20140929.112350	same	100	same	1	7242
211	211	27	F	PSYC4802-20144	1.0	Block	exp	88	20140929.112359	same	20	same	1	4191
211	211	27	F	PSYC4802-20144	1.0	Block	exp	89	20140929.112405	same	100	same	1	5261
211	211	27	F	PSYC4802-20144	1.0	Block	exp	90	20140929.112412	diff	20	diff	1	2371
211	211	27	F	PSYC4802-20144	1.0	Block	exp	91	20140929.112417	diff	100	diff	1	2086
211	211	27	F	PSYC4802-20144	1.0	Block	exp	92	20140929.112421	same	60	same	1	3391
211	211	27	F	PSYC4802-20144	1.0	Block	exp	93	20140929.112426	same	60	same	1	3261
211	211	27	F	PSYC4802-20144	1.0	Block	exp	94	20140929.112431	diff	60	diff	1	5141
211	211	27	F	PSYC4802-20144	1.0	Block	exp	95	20140929.112439	same	100	same	1	4622
211	211	27	F	PSYC4802-20144	1.0	Block	exp	96	20140929.112445	diff	100	diff	1	4061
211	211	27	F	PSYC4802-20144	1.0	Block	exp	97	20140929.112451	diff	20	diff	1	6421
211	211	27	F	PSYC4802-20144	1.0	Block	exp	98	20140929.112500	same	20	same	1	4492
211	211	27	F	PSYC4802-20144	1.0	Block	exp	99	20140929.112506	same	60	same	1	4741
211	211	27	F	PSYC4802-20144	1.0	Block	exp	100	20140929.112513	same	60	diff	0	6082
211	211	27	F	PSYC4802-20144	1.0	Block	exp	101	20140929.112534	same	100	same	1	7357
211	211	27	F	PSYC4802-20144	1.0	Block	exp	102	20140929.112544	same	100	same	1	7258
211	211	27	F	PSYC4802-20144	1.0	Block	exp	103	20140929.112553	same	60	same	1	5566
211	211	27	F	PSYC4802-20144	1.0	Block	exp	104	20140929.112601	same	100	same	1	2831
211	211	27	F	PSYC4802-20144	1.0	Block	exp	105	20140929.112605	same	60	same	1	3876
211	211	27	F	PSYC4802-20144	1.0	Block	exp	106	20140929.112611	diff	20	same	0	7711
211	211	27	F	PSYC4802-20144	1.0	Block	exp	107	20140929.112621	diff	60	same	0	7232
211	211	27	F	PSYC4802-20144	1.0	Block	exp	108	20140929.112630	same	100	same	1	10972
211	211	27	F	PSYC4802-20144	1.0	Block	exp	109	20140929.112643	same	20	same	1	2841
211	211	27	F	PSYC4802-20144	1.0	Block	exp	110	20140929.112648	diff	60	diff	1	3651
211	211	27	F	PSYC4802-20144	1.0	Block	exp	111	20140929.112654	diff	100	diff	1	7807
211	211	27	F	PSYC4802-20144	1.0	Block	exp	112	20140929.112704	diff	20	diff	1	5386
211	211	27	F	PSYC4802-20144	1.0	Block	exp	113	20140929.112711	diff	60	diff	1	8671
211	211	27	F	PSYC4802-20144	1.0	Block	exp	114	20140929.112722	same	20	same	1	5007
211	211	27	F	PSYC4802-20144	1.0	Block	exp	115	20140929.112729	diff	60	diff	1	5036
211	211	27	F	PSYC4802-20144	1.0	Block	exp	116	20140929.112736	diff	60	diff	1	4017
211	211	27	F	PSYC4802-20144	1.0	Block	exp	117	20140929.112742	same	60	same	1	4037
211	211	27	F	PSYC4802-20144	1.0	Block	exp	118	20140929.112748	same	60	same	1	5473
211	211	27	F	PSYC4802-20144	1.0	Block	exp	119	20140929.112755	diff	60	diff	1	4726
211	211	27	F	PSYC4802-20144	1.0	Block	exp	120	20140929.112802	diff	100	diff	1	2897
211	211	27	F	PSYC4802-20144	1.0	Block	exp	121	20140929.112807	diff	20	diff	1	2611
211	211	27	F	PSYC4802-20144	1.0	Block	exp	122	20140929.112811	diff	20	diff	1	4351
211	211	27	F	PSYC4802-20144	1.0	Block	exp	123	20140929.112818	diff	60	diff	1	3772
211	211	27	F	PSYC4802-20144	1.0	Block	exp	124	20140929.112824	same	60	same	1	4986
211	211	27	F	PSYC4802-20144	1.0	Block	exp	125	20140929.112831	same	20	same	1	3371
211	211	27	F	PSYC4802-20144	1.0	Block	exp	126	20140929.112836	diff	100	diff	1	4981
211	211	27	F	PSYC4802-20144	1.0	Block	exp	127	20140929.112843	diff	60	diff	1	5358
211	211	27	F	PSYC4802-20144	1.0	Block	exp	128	20140929.112850	same	20	same	1	3306
211	211	27	F	PSYC4802-20144	1.0	Block	exp	129	20140929.112856	diff	20	diff	1	4571
211	211	27	F	PSYC4802-20144	1.0	Block	exp	130	20140929.112902	diff	60	diff	1	2136
211	211	27	F	PSYC4802-20144	1.0	Block	exp	131	20140929.112906	same	100	same	1	4266
211	211	27	F	PSYC4802-20144	1.0	Block	exp	132	20140929.112913	diff	100	diff	1	3256
211	211	27	F	PSYC4802-20144	1.0	Block	exp	133	20140929.112918	same	20	same	1	2961
211	211	27	F	PSYC4802-20144	1.0	Block	exp	134	20140929.112923	same	100	same	1	2731
211	211	27	F	PSYC4802-20144	1.0	Block	exp	135	20140929.112927	same	20	same	1	1526
211	211	27	F	PSYC4802-20144	1.0	Block	exp	136	20140929.112931	diff	20	diff	1	4197
211	211	27	F	PSYC4802-20144	1.0	Block	exp	137	20140929.112937	same	60	same	1	3247
211	211	27	F	PSYC4802-20144	1.0	Block	exp	138	20140929.112942	same	100	same	1	5046
211	211	27	F	PSYC4802-20144	1.0	Block	exp	139	20140929.112950	same	20	same	1	2556
211	211	27	F	PSYC4802-20144	1.0	Block	exp	140	20140929.112954	same	100	same	1	3112
211	211	27	F	PSYC4802-20144	1.0	Block	exp	141	20140929.112959	diff	100	diff	1	2466
211	211	27	F	PSYC4802-20144	1.0	Block	exp	142	20140929.113004	diff	100	diff	1	3326
211	211	27	F	PSYC4802-20144	1.0	Block	exp	143	20140929.113009	diff	20	diff	1	2841
211	211	27	F	PSYC4802-20144	1.0	Block	exp	144	20140929.113014	diff	60	diff	1	1641
211	211	27	F	PSYC4802-20144	1.0	Block	exp	145	20140929.113017	diff	100	diff	1	4143
211	211	27	F	PSYC4802-20144	1.0	Block	exp	146	20140929.113024	same	20	same	1	3007
211	211	27	F	PSYC4802-20144	1.0	Block	exp	147	20140929.113029	same	60	same	1	3341
211	211	27	F	PSYC4802-20144	1.0	Block	exp	148	20140929.113034	diff	100	diff	1	2361
211	211	27	F	PSYC4802-20144	1.0	Block	exp	149	20140929.113038	same	20	same	1	2441
211	211	27	F	PSYC4802-20144	1.0	Block	exp	150	20140929.113043	diff	60	diff	1	3167
