Experimenter	Subject	Age	Sex	Experiment	Version	Block	TrialType	Trial	Timestamp	SameDiff	Rotation	Response	Acc	RT
SMP	337	20	F	PSYC4802-20144	1.0.1	Block	practice	1	20141103.115400	same	20	same	1	6347
SMP	337	20	F	PSYC4802-20144	1.0.1	Block	practice	2	20141103.115409	diff	60	diff	1	6372
SMP	337	20	F	PSYC4802-20144	1.0.1	Block	practice	3	20141103.115417	diff	100	diff	1	5902
SMP	337	20	F	PSYC4802-20144	1.0.1	Block	practice	4	20141103.115425	same	100	diff	0	4146
SMP	337	20	F	PSYC4802-20144	1.0.1	Block	practice	5	20141103.115431	diff	20	diff	1	7312
SMP	337	20	F	PSYC4802-20144	1.0.1	Block	practice	6	20141103.115441	diff	60	diff	1	6792
SMP	337	20	F	PSYC4802-20144	1.0.1	Block	practice	7	20141103.115449	diff	100	diff	1	5326
SMP	337	20	F	PSYC4802-20144	1.0.1	Block	practice	8	20141103.115457	diff	20	diff	1	10427
SMP	337	20	F	PSYC4802-20144	1.0.1	Block	practice	9	20141103.115509	same	100	diff	0	3251
SMP	337	20	F	PSYC4802-20144	1.0.1	Block	practice	10	20141103.115514	diff	100	diff	1	4721
SMP	337	20	F	PSYC4802-20144	1.0.1	Block	practice	11	20141103.115521	same	60	same	1	3962
SMP	337	20	F	PSYC4802-20144	1.0.1	Block	practice	12	20141103.115527	diff	20	diff	1	8776
SMP	337	20	F	PSYC4802-20144	1.0.1	Block	practice	13	20141103.115538	same	20	same	1	3661
SMP	337	20	F	PSYC4802-20144	1.0.1	Block	practice	14	20141103.115543	diff	100	diff	1	8347
SMP	337	20	F	PSYC4802-20144	1.0.1	Block	practice	15	20141103.115554	same	60	diff	0	2696
SMP	337	20	F	PSYC4802-20144	1.0.1	Block	practice	16	20141103.115559	diff	60	diff	1	5086
SMP	337	20	F	PSYC4802-20144	1.0.1	Block	practice	17	20141103.115606	same	60	diff	0	3212
SMP	337	20	F	PSYC4802-20144	1.0.1	Block	practice	18	20141103.115611	diff	20	diff	1	4136
SMP	337	20	F	PSYC4802-20144	1.0.1	Block	practice	19	20141103.115617	same	100	same	1	7242
SMP	337	20	F	PSYC4802-20144	1.0.1	Block	practice	20	20141103.115626	diff	60	diff	1	2991
SMP	337	20	F	PSYC4802-20144	1.0.1	Block	practice	21	20141103.115631	same	60	same	1	3652
SMP	337	20	F	PSYC4802-20144	1.0.1	Block	practice	22	20141103.115637	diff	100	diff	1	5687
SMP	337	20	F	PSYC4802-20144	1.0.1	Block	practice	23	20141103.115645	same	100	diff	0	3152
SMP	337	20	F	PSYC4802-20144	1.0.1	Block	practice	24	20141103.115650	same	20	same	1	3606
SMP	337	20	F	PSYC4802-20144	1.0.1	Block	practice	25	20141103.115655	same	100	same	1	5692
SMP	337	20	F	PSYC4802-20144	1.0.1	Block	practice	26	20141103.115703	same	20	same	1	2776
SMP	337	20	F	PSYC4802-20144	1.0.1	Block	practice	27	20141103.115708	same	20	same	1	2951
SMP	337	20	F	PSYC4802-20144	1.0.1	Block	practice	28	20141103.115713	same	60	same	1	4222
SMP	337	20	F	PSYC4802-20144	1.0.1	Block	practice	29	20141103.115719	diff	20	diff	1	6086
SMP	337	20	F	PSYC4802-20144	1.0.1	Block	practice	30	20141103.115727	diff	60	diff	1	7581
SMP	337	20	F	PSYC4802-20144	1.0.1	Block	exp	31	20141103.115737	diff	20	diff	1	1756
SMP	337	20	F	PSYC4802-20144	1.0.1	Block	exp	32	20141103.115741	same	60	same	1	3761
SMP	337	20	F	PSYC4802-20144	1.0.1	Block	exp	33	20141103.115746	diff	20	diff	1	4632
SMP	337	20	F	PSYC4802-20144	1.0.1	Block	exp	34	20141103.115753	diff	100	diff	1	7052
SMP	337	20	F	PSYC4802-20144	1.0.1	Block	exp	35	20141103.115802	same	100	diff	0	4521
SMP	337	20	F	PSYC4802-20144	1.0.1	Block	exp	36	20141103.115809	same	100	diff	0	10161
SMP	337	20	F	PSYC4802-20144	1.0.1	Block	exp	37	20141103.115821	same	100	same	1	15997
SMP	337	20	F	PSYC4802-20144	1.0.1	Block	exp	38	20141103.115839	same	100	diff	0	2976
SMP	337	20	F	PSYC4802-20144	1.0.1	Block	exp	39	20141103.115844	same	60	same	1	4122
SMP	337	20	F	PSYC4802-20144	1.0.1	Block	exp	40	20141103.115850	same	100	same	1	6297
SMP	337	20	F	PSYC4802-20144	1.0.1	Block	exp	41	20141103.115858	same	100	same	1	5336
SMP	337	20	F	PSYC4802-20144	1.0.1	Block	exp	42	20141103.115905	diff	20	same	0	2086
SMP	337	20	F	PSYC4802-20144	1.0.1	Block	exp	43	20141103.115910	diff	100	diff	1	341
SMP	337	20	F	PSYC4802-20144	1.0.1	Block	exp	44	20141103.115912	diff	100	diff	1	386
SMP	337	20	F	PSYC4802-20144	1.0.1	Block	exp	45	20141103.115914	diff	20	same	0	406
SMP	337	20	F	PSYC4802-20144	1.0.1	Block	exp	46	20141103.115917	same	20	diff	0	301
SMP	337	20	F	PSYC4802-20144	1.0.1	Block	exp	47	20141103.115919	diff	100	same	0	766
SMP	337	20	F	PSYC4802-20144	1.0.1	Block	exp	48	20141103.115922	same	100	diff	0	241
SMP	337	20	F	PSYC4802-20144	1.0.1	Block	exp	49	20141103.115924	diff	100	same	0	1476
SMP	337	20	F	PSYC4802-20144	1.0.1	Block	exp	50	20141103.115928	diff	60	diff	1	626
SMP	337	20	F	PSYC4802-20144	1.0.1	Block	exp	51	20141103.115940	diff	60	diff	1	4621
SMP	337	20	F	PSYC4802-20144	1.0.1	Block	exp	52	20141103.115947	same	100	diff	0	4601
SMP	337	20	F	PSYC4802-20144	1.0.1	Block	exp	53	20141103.115953	same	100	diff	0	6016
SMP	337	20	F	PSYC4802-20144	1.0.1	Block	exp	54	20141103.120001	diff	60	same	0	1021
SMP	337	20	F	PSYC4802-20144	1.0.1	Block	exp	55	20141103.120004	same	100	diff	0	321
SMP	337	20	F	PSYC4802-20144	1.0.1	Block	exp	56	20141103.120006	same	20	same	1	246
SMP	337	20	F	PSYC4802-20144	1.0.1	Block	exp	57	20141103.120009	diff	20	same	0	546
SMP	337	20	F	PSYC4802-20144	1.0.1	Block	exp	58	20141103.120011	diff	100	diff	1	291
SMP	337	20	F	PSYC4802-20144	1.0.1	Block	exp	59	20141103.120014	diff	100	diff	1	331
SMP	337	20	F	PSYC4802-20144	1.0.1	Block	exp	60	20141103.120016	diff	100	same	0	416
SMP	337	20	F	PSYC4802-20144	1.0.1	Block	exp	61	20141103.120018	same	100	diff	0	2096
SMP	337	20	F	PSYC4802-20144	1.0.1	Block	exp	62	20141103.120023	diff	20	same	0	301
SMP	337	20	F	PSYC4802-20144	1.0.1	Block	exp	63	20141103.120025	same	60	diff	0	371
SMP	337	20	F	PSYC4802-20144	1.0.1	Block	exp	64	20141103.120027	same	60	same	1	1181
SMP	337	20	F	PSYC4802-20144	1.0.1	Block	exp	65	20141103.120031	same	20	same	1	3246
SMP	337	20	F	PSYC4802-20144	1.0.1	Block	exp	66	20141103.120036	same	60	same	1	2756
SMP	337	20	F	PSYC4802-20144	1.0.1	Block	exp	67	20141103.120041	diff	20	diff	1	3016
SMP	337	20	F	PSYC4802-20144	1.0.1	Block	exp	68	20141103.120046	diff	100	diff	1	4331
SMP	337	20	F	PSYC4802-20144	1.0.1	Block	exp	69	20141103.120052	same	60	diff	0	2851
SMP	337	20	F	PSYC4802-20144	1.0.1	Block	exp	70	20141103.120057	same	60	same	1	531
SMP	337	20	F	PSYC4802-20144	1.0.1	Block	exp	71	20141103.120059	diff	60	diff	1	4316
SMP	337	20	F	PSYC4802-20144	1.0.1	Block	exp	72	20141103.120106	same	100	same	1	2541
SMP	337	20	F	PSYC4802-20144	1.0.1	Block	exp	73	20141103.120110	diff	100	diff	1	1851
SMP	337	20	F	PSYC4802-20144	1.0.1	Block	exp	74	20141103.120114	same	60	same	1	4086
SMP	337	20	F	PSYC4802-20144	1.0.1	Block	exp	75	20141103.120120	diff	100	diff	1	2821
SMP	337	20	F	PSYC4802-20144	1.0.1	Block	exp	76	20141103.120125	diff	60	diff	1	3226
SMP	337	20	F	PSYC4802-20144	1.0.1	Block	exp	77	20141103.120130	diff	60	diff	1	4671
SMP	337	20	F	PSYC4802-20144	1.0.1	Block	exp	78	20141103.120137	diff	20	diff	1	1916
SMP	337	20	F	PSYC4802-20144	1.0.1	Block	exp	79	20141103.120141	diff	60	diff	1	4446
SMP	337	20	F	PSYC4802-20144	1.0.1	Block	exp	80	20141103.120147	same	20	same	1	521
SMP	337	20	F	PSYC4802-20144	1.0.1	Block	exp	81	20141103.120150	same	60	same	1	606
SMP	337	20	F	PSYC4802-20144	1.0.1	Block	exp	82	20141103.120152	same	20	same	1	2266
SMP	337	20	F	PSYC4802-20144	1.0.1	Block	exp	83	20141103.120157	diff	60	diff	1	556
SMP	337	20	F	PSYC4802-20144	1.0.1	Block	exp	84	20141103.120159	diff	20	same	0	506
SMP	337	20	F	PSYC4802-20144	1.0.1	Block	exp	85	20141103.120202	diff	20	same	0	377
SMP	337	20	F	PSYC4802-20144	1.0.1	Block	exp	86	20141103.120204	same	60	same	1	431
SMP	337	20	F	PSYC4802-20144	1.0.1	Block	exp	87	20141103.120207	diff	60	same	0	486
SMP	337	20	F	PSYC4802-20144	1.0.1	Block	exp	88	20141103.120209	diff	20	diff	1	616
SMP	337	20	F	PSYC4802-20144	1.0.1	Block	exp	89	20141103.120212	diff	60	diff	1	311
SMP	337	20	F	PSYC4802-20144	1.0.1	Block	exp	90	20141103.120214	same	20	same	1	2656
SMP	337	20	F	PSYC4802-20144	1.0.1	Block	exp	91	20141103.120219	diff	60	same	0	651
SMP	337	20	F	PSYC4802-20144	1.0.1	Block	exp	92	20141103.120222	same	100	diff	0	347
SMP	337	20	F	PSYC4802-20144	1.0.1	Block	exp	93	20141103.120224	same	100	same	1	311
SMP	337	20	F	PSYC4802-20144	1.0.1	Block	exp	94	20141103.120227	same	20	same	1	4207
SMP	337	20	F	PSYC4802-20144	1.0.1	Block	exp	95	20141103.120233	same	100	same	1	3917
SMP	337	20	F	PSYC4802-20144	1.0.1	Block	exp	96	20141103.120239	same	60	same	1	5091
SMP	337	20	F	PSYC4802-20144	1.0.1	Block	exp	97	20141103.120246	diff	100	diff	1	2166
SMP	337	20	F	PSYC4802-20144	1.0.1	Block	exp	98	20141103.120250	same	60	same	1	2651
SMP	337	20	F	PSYC4802-20144	1.0.1	Block	exp	99	20141103.120255	diff	60	same	0	2602
SMP	337	20	F	PSYC4802-20144	1.0.1	Block	exp	100	20141103.120259	diff	20	diff	1	966
SMP	337	20	F	PSYC4802-20144	1.0.1	Block	exp	101	20141103.120304	same	20	same	1	1796
SMP	337	20	F	PSYC4802-20144	1.0.1	Block	exp	102	20141103.120308	diff	20	diff	1	3641
SMP	337	20	F	PSYC4802-20144	1.0.1	Block	exp	103	20141103.120314	same	60	same	1	3241
SMP	337	20	F	PSYC4802-20144	1.0.1	Block	exp	104	20141103.120319	diff	60	diff	1	1706
SMP	337	20	F	PSYC4802-20144	1.0.1	Block	exp	105	20141103.120323	same	20	same	1	1846
SMP	337	20	F	PSYC4802-20144	1.0.1	Block	exp	106	20141103.120327	same	60	diff	0	3186
SMP	337	20	F	PSYC4802-20144	1.0.1	Block	exp	107	20141103.120332	same	20	same	1	321
SMP	337	20	F	PSYC4802-20144	1.0.1	Block	exp	108	20141103.120334	same	20	same	1	286
SMP	337	20	F	PSYC4802-20144	1.0.1	Block	exp	109	20141103.120337	same	60	same	1	2536
SMP	337	20	F	PSYC4802-20144	1.0.1	Block	exp	110	20141103.120341	same	20	diff	0	321
SMP	337	20	F	PSYC4802-20144	1.0.1	Block	exp	111	20141103.120344	diff	60	diff	1	311
SMP	337	20	F	PSYC4802-20144	1.0.1	Block	exp	112	20141103.120346	diff	60	same	0	636
SMP	337	20	F	PSYC4802-20144	1.0.1	Block	exp	113	20141103.120349	diff	20	diff	1	441
SMP	337	20	F	PSYC4802-20144	1.0.1	Block	exp	114	20141103.120351	diff	20	diff	1	1162
SMP	337	20	F	PSYC4802-20144	1.0.1	Block	exp	115	20141103.120354	diff	20	same	0	4086
SMP	337	20	F	PSYC4802-20144	1.0.1	Block	exp	116	20141103.120400	same	60	diff	0	476
SMP	337	20	F	PSYC4802-20144	1.0.1	Block	exp	117	20141103.120403	diff	100	same	0	546
SMP	337	20	F	PSYC4802-20144	1.0.1	Block	exp	118	20141103.120406	same	20	same	1	2371
SMP	337	20	F	PSYC4802-20144	1.0.1	Block	exp	119	20141103.120410	diff	20	same	0	387
SMP	337	20	F	PSYC4802-20144	1.0.1	Block	exp	120	20141103.120412	same	100	same	1	4106
SMP	337	20	F	PSYC4802-20144	1.0.1	Block	exp	121	20141103.120419	diff	60	diff	1	3811
SMP	337	20	F	PSYC4802-20144	1.0.1	Block	exp	122	20141103.120424	diff	100	diff	1	2498
SMP	337	20	F	PSYC4802-20144	1.0.1	Block	exp	123	20141103.120429	same	60	diff	0	2676
SMP	337	20	F	PSYC4802-20144	1.0.1	Block	exp	124	20141103.120434	same	20	same	1	3402
SMP	337	20	F	PSYC4802-20144	1.0.1	Block	exp	125	20141103.120439	diff	60	diff	1	4843
SMP	337	20	F	PSYC4802-20144	1.0.1	Block	exp	126	20141103.120448	same	100	diff	0	1486
SMP	337	20	F	PSYC4802-20144	1.0.1	Block	exp	127	20141103.120452	diff	20	diff	1	3852
SMP	337	20	F	PSYC4802-20144	1.0.1	Block	exp	128	20141103.120458	diff	100	diff	1	2431
SMP	337	20	F	PSYC4802-20144	1.0.1	Block	exp	129	20141103.120502	diff	20	diff	1	2247
SMP	337	20	F	PSYC4802-20144	1.0.1	Block	exp	130	20141103.120506	diff	20	same	0	381
SMP	337	20	F	PSYC4802-20144	1.0.1	Block	exp	131	20141103.120509	same	20	diff	0	1016
SMP	337	20	F	PSYC4802-20144	1.0.1	Block	exp	132	20141103.120512	diff	60	diff	1	2306
SMP	337	20	F	PSYC4802-20144	1.0.1	Block	exp	133	20141103.120516	diff	100	diff	1	11499
SMP	337	20	F	PSYC4802-20144	1.0.1	Block	exp	134	20141103.120530	diff	60	diff	1	5086
SMP	337	20	F	PSYC4802-20144	1.0.1	Block	exp	135	20141103.120537	diff	100	diff	1	2541
SMP	337	20	F	PSYC4802-20144	1.0.1	Block	exp	136	20141103.120541	same	60	same	1	3072
SMP	337	20	F	PSYC4802-20144	1.0.1	Block	exp	137	20141103.120547	diff	100	diff	1	3001
SMP	337	20	F	PSYC4802-20144	1.0.1	Block	exp	138	20141103.120552	same	20	same	1	2926
SMP	337	20	F	PSYC4802-20144	1.0.1	Block	exp	139	20141103.120556	same	20	same	1	3711
SMP	337	20	F	PSYC4802-20144	1.0.1	Block	exp	140	20141103.120602	same	100	diff	0	4216
SMP	337	20	F	PSYC4802-20144	1.0.1	Block	exp	141	20141103.120608	same	20	same	1	2736
SMP	337	20	F	PSYC4802-20144	1.0.1	Block	exp	142	20141103.120613	diff	100	diff	1	12556
SMP	337	20	F	PSYC4802-20144	1.0.1	Block	exp	143	20141103.120628	diff	60	diff	1	2651
SMP	337	20	F	PSYC4802-20144	1.0.1	Block	exp	144	20141103.120632	diff	100	diff	1	2186
SMP	337	20	F	PSYC4802-20144	1.0.1	Block	exp	145	20141103.120637	same	20	same	1	3361
SMP	337	20	F	PSYC4802-20144	1.0.1	Block	exp	146	20141103.120642	same	20	same	1	2807
SMP	337	20	F	PSYC4802-20144	1.0.1	Block	exp	147	20141103.120647	same	100	same	1	3236
SMP	337	20	F	PSYC4802-20144	1.0.1	Block	exp	148	20141103.120652	same	60	same	1	2626
SMP	337	20	F	PSYC4802-20144	1.0.1	Block	exp	149	20141103.120657	same	60	same	1	2686
SMP	337	20	F	PSYC4802-20144	1.0.1	Block	exp	150	20141103.120702	same	100	diff	0	3451
