Experimenter	Subject	Age	Sex	Experiment	Version	Block	TrialType	Trial	Timestamp	SameDiff	Rotation	Response	Acc	RT
JH	229	42	m	PSYC4802-20144	1.0	Block	practice	1	20141013.112820	diff	60	diff	1	9561
JH	229	42	m	PSYC4802-20144	1.0	Block	practice	2	20141013.112832	diff	100	same	0	6246
JH	229	42	m	PSYC4802-20144	1.0	Block	practice	3	20141013.112840	same	100	same	1	1836
JH	229	42	m	PSYC4802-20144	1.0	Block	practice	4	20141013.112844	same	60	diff	0	3241
JH	229	42	m	PSYC4802-20144	1.0	Block	practice	5	20141013.112849	same	20	same	1	5047
JH	229	42	m	PSYC4802-20144	1.0	Block	practice	6	20141013.112856	same	20	same	1	5351
JH	229	42	m	PSYC4802-20144	1.0	Block	practice	7	20141013.112904	diff	20	diff	1	2151
JH	229	42	m	PSYC4802-20144	1.0	Block	practice	8	20141013.112908	diff	100	same	0	4496
JH	229	42	m	PSYC4802-20144	1.0	Block	practice	9	20141013.112914	same	60	same	1	3291
JH	229	42	m	PSYC4802-20144	1.0	Block	practice	10	20141013.112920	diff	20	diff	1	4011
JH	229	42	m	PSYC4802-20144	1.0	Block	practice	11	20141013.112926	diff	60	same	0	2751
JH	229	42	m	PSYC4802-20144	1.0	Block	practice	12	20141013.112931	diff	60	diff	1	3511
JH	229	42	m	PSYC4802-20144	1.0	Block	practice	13	20141013.112936	same	60	same	1	5866
JH	229	42	m	PSYC4802-20144	1.0	Block	practice	14	20141013.112944	diff	20	diff	1	6601
JH	229	42	m	PSYC4802-20144	1.0	Block	practice	15	20141013.112953	diff	60	diff	1	6992
JH	229	42	m	PSYC4802-20144	1.0	Block	practice	16	20141013.113002	diff	20	diff	1	5437
JH	229	42	m	PSYC4802-20144	1.0	Block	practice	17	20141013.113009	same	20	same	1	4411
JH	229	42	m	PSYC4802-20144	1.0	Block	practice	18	20141013.113015	diff	20	diff	1	5176
JH	229	42	m	PSYC4802-20144	1.0	Block	practice	19	20141013.113023	diff	100	diff	1	6676
JH	229	42	m	PSYC4802-20144	1.0	Block	practice	20	20141013.113031	same	20	same	1	3706
JH	229	42	m	PSYC4802-20144	1.0	Block	practice	21	20141013.113037	same	60	diff	0	5226
JH	229	42	m	PSYC4802-20144	1.0	Block	practice	22	20141013.113044	same	100	diff	0	5591
JH	229	42	m	PSYC4802-20144	1.0	Block	practice	23	20141013.113052	same	100	same	1	6341
JH	229	42	m	PSYC4802-20144	1.0	Block	practice	24	20141013.113100	diff	60	diff	1	11387
JH	229	42	m	PSYC4802-20144	1.0	Block	practice	25	20141013.113114	same	20	same	1	5061
JH	229	42	m	PSYC4802-20144	1.0	Block	practice	26	20141013.113121	diff	100	diff	1	8517
JH	229	42	m	PSYC4802-20144	1.0	Block	practice	27	20141013.113131	same	100	same	1	12517
JH	229	42	m	PSYC4802-20144	1.0	Block	practice	28	20141013.113146	same	100	same	1	11847
JH	229	42	m	PSYC4802-20144	1.0	Block	practice	29	20141013.113200	same	60	same	1	7426
JH	229	42	m	PSYC4802-20144	1.0	Block	practice	30	20141013.113209	diff	100	same	0	7557
JH	229	42	m	PSYC4802-20144	1.0	Block	exp	31	20141013.113219	same	20	same	1	5951
JH	229	42	m	PSYC4802-20144	1.0	Block	exp	32	20141013.113227	diff	60	diff	1	4846
JH	229	42	m	PSYC4802-20144	1.0	Block	exp	33	20141013.113234	same	100	same	1	5206
JH	229	42	m	PSYC4802-20144	1.0	Block	exp	34	20141013.113241	diff	20	same	0	4637
JH	229	42	m	PSYC4802-20144	1.0	Block	exp	35	20141013.113247	diff	60	same	0	7236
JH	229	42	m	PSYC4802-20144	1.0	Block	exp	36	20141013.113257	same	100	diff	0	5706
JH	229	42	m	PSYC4802-20144	1.0	Block	exp	37	20141013.113304	diff	60	diff	1	9486
JH	229	42	m	PSYC4802-20144	1.0	Block	exp	38	20141013.113316	diff	100	diff	1	6276
JH	229	42	m	PSYC4802-20144	1.0	Block	exp	39	20141013.113324	diff	20	same	0	7191
JH	229	42	m	PSYC4802-20144	1.0	Block	exp	40	20141013.113333	diff	20	diff	1	15977
JH	229	42	m	PSYC4802-20144	1.0	Block	exp	41	20141013.113351	diff	60	diff	1	7152
JH	229	42	m	PSYC4802-20144	1.0	Block	exp	42	20141013.113401	diff	20	same	0	16647
JH	229	42	m	PSYC4802-20144	1.0	Block	exp	43	20141013.113419	same	100	same	1	16646
JH	229	42	m	PSYC4802-20144	1.0	Block	exp	44	20141013.113438	same	20	same	1	7831
JH	229	42	m	PSYC4802-20144	1.0	Block	exp	45	20141013.113448	same	60	same	1	5932
JH	229	42	m	PSYC4802-20144	1.0	Block	exp	46	20141013.113456	diff	100	diff	1	8404
JH	229	42	m	PSYC4802-20144	1.0	Block	exp	47	20141013.113506	diff	100	diff	1	6047
JH	229	42	m	PSYC4802-20144	1.0	Block	exp	48	20141013.113514	same	20	same	1	10822
JH	229	42	m	PSYC4802-20144	1.0	Block	exp	49	20141013.113527	same	20	same	1	8101
JH	229	42	m	PSYC4802-20144	1.0	Block	exp	50	20141013.113537	diff	100	diff	1	6972
JH	229	42	m	PSYC4802-20144	1.0	Block	exp	51	20141013.113622	same	100	diff	0	4672
JH	229	42	m	PSYC4802-20144	1.0	Block	exp	52	20141013.113628	diff	100	diff	1	10866
JH	229	42	m	PSYC4802-20144	1.0	Block	exp	53	20141013.113641	same	20	same	1	5586
JH	229	42	m	PSYC4802-20144	1.0	Block	exp	54	20141013.113649	same	20	same	1	4546
JH	229	42	m	PSYC4802-20144	1.0	Block	exp	55	20141013.113656	diff	100	diff	1	7412
JH	229	42	m	PSYC4802-20144	1.0	Block	exp	56	20141013.113705	same	60	diff	0	3961
JH	229	42	m	PSYC4802-20144	1.0	Block	exp	57	20141013.113711	same	100	diff	0	8721
JH	229	42	m	PSYC4802-20144	1.0	Block	exp	58	20141013.113722	diff	20	same	0	7346
JH	229	42	m	PSYC4802-20144	1.0	Block	exp	59	20141013.113731	same	100	same	1	8786
JH	229	42	m	PSYC4802-20144	1.0	Block	exp	60	20141013.113742	same	100	diff	0	8596
JH	229	42	m	PSYC4802-20144	1.0	Block	exp	61	20141013.113752	diff	60	same	0	11307
JH	229	42	m	PSYC4802-20144	1.0	Block	exp	62	20141013.113806	same	20	same	1	6196
JH	229	42	m	PSYC4802-20144	1.0	Block	exp	63	20141013.113814	diff	100	diff	1	8697
JH	229	42	m	PSYC4802-20144	1.0	Block	exp	64	20141013.113825	same	60	same	1	6817
JH	229	42	m	PSYC4802-20144	1.0	Block	exp	65	20141013.113834	diff	60	diff	1	7506
JH	229	42	m	PSYC4802-20144	1.0	Block	exp	66	20141013.113843	same	20	same	1	6852
JH	229	42	m	PSYC4802-20144	1.0	Block	exp	67	20141013.113852	same	100	same	1	8996
JH	229	42	m	PSYC4802-20144	1.0	Block	exp	68	20141013.113903	diff	60	diff	1	8521
JH	229	42	m	PSYC4802-20144	1.0	Block	exp	69	20141013.113914	diff	20	diff	1	9526
JH	229	42	m	PSYC4802-20144	1.0	Block	exp	70	20141013.113925	diff	60	same	0	10581
JH	229	42	m	PSYC4802-20144	1.0	Block	exp	71	20141013.113938	same	100	same	1	7806
JH	229	42	m	PSYC4802-20144	1.0	Block	exp	72	20141013.113948	same	60	same	1	7426
JH	229	42	m	PSYC4802-20144	1.0	Block	exp	73	20141013.113957	same	100	same	1	12066
JH	229	42	m	PSYC4802-20144	1.0	Block	exp	74	20141013.114011	same	60	same	1	7927
JH	229	42	m	PSYC4802-20144	1.0	Block	exp	75	20141013.114021	same	100	same	1	10316
JH	229	42	m	PSYC4802-20144	1.0	Block	exp	76	20141013.114034	diff	20	same	0	7796
JH	229	42	m	PSYC4802-20144	1.0	Block	exp	77	20141013.114043	same	20	same	1	6186
JH	229	42	m	PSYC4802-20144	1.0	Block	exp	78	20141013.114052	same	20	same	1	6271
JH	229	42	m	PSYC4802-20144	1.0	Block	exp	79	20141013.114100	same	100	diff	0	8867
JH	229	42	m	PSYC4802-20144	1.0	Block	exp	80	20141013.114111	same	60	same	1	8887
JH	229	42	m	PSYC4802-20144	1.0	Block	exp	81	20141013.114122	same	100	same	1	6612
JH	229	42	m	PSYC4802-20144	1.0	Block	exp	82	20141013.114130	same	20	same	1	4971
JH	229	42	m	PSYC4802-20144	1.0	Block	exp	83	20141013.114137	diff	100	diff	1	5711
JH	229	42	m	PSYC4802-20144	1.0	Block	exp	84	20141013.114145	same	20	same	1	7011
JH	229	42	m	PSYC4802-20144	1.0	Block	exp	85	20141013.114154	diff	20	diff	1	13086
JH	229	42	m	PSYC4802-20144	1.0	Block	exp	86	20141013.114209	same	60	diff	0	4121
JH	229	42	m	PSYC4802-20144	1.0	Block	exp	87	20141013.114215	diff	60	diff	1	6261
JH	229	42	m	PSYC4802-20144	1.0	Block	exp	88	20141013.114224	same	60	same	1	6686
JH	229	42	m	PSYC4802-20144	1.0	Block	exp	89	20141013.114232	same	60	same	1	6402
JH	229	42	m	PSYC4802-20144	1.0	Block	exp	90	20141013.114241	diff	20	diff	1	6032
JH	229	42	m	PSYC4802-20144	1.0	Block	exp	91	20141013.114249	diff	20	diff	1	10702
JH	229	42	m	PSYC4802-20144	1.0	Block	exp	92	20141013.114302	same	60	same	1	7077
JH	229	42	m	PSYC4802-20144	1.0	Block	exp	93	20141013.114311	same	20	same	1	5036
JH	229	42	m	PSYC4802-20144	1.0	Block	exp	94	20141013.114318	diff	100	diff	1	7116
JH	229	42	m	PSYC4802-20144	1.0	Block	exp	95	20141013.114327	diff	100	diff	1	4516
JH	229	42	m	PSYC4802-20144	1.0	Block	exp	96	20141013.114334	diff	100	diff	1	5732
JH	229	42	m	PSYC4802-20144	1.0	Block	exp	97	20141013.114341	diff	20	diff	1	4906
JH	229	42	m	PSYC4802-20144	1.0	Block	exp	98	20141013.114348	diff	60	diff	1	4381
JH	229	42	m	PSYC4802-20144	1.0	Block	exp	99	20141013.114355	diff	20	diff	1	3096
JH	229	42	m	PSYC4802-20144	1.0	Block	exp	100	20141013.114400	diff	20	diff	1	4416
JH	229	42	m	PSYC4802-20144	1.0	Block	exp	101	20141013.114424	diff	60	diff	1	3391
JH	229	42	m	PSYC4802-20144	1.0	Block	exp	102	20141013.114429	diff	100	diff	1	4427
JH	229	42	m	PSYC4802-20144	1.0	Block	exp	103	20141013.114436	same	60	same	1	6016
JH	229	42	m	PSYC4802-20144	1.0	Block	exp	104	20141013.114444	diff	60	diff	1	2916
JH	229	42	m	PSYC4802-20144	1.0	Block	exp	105	20141013.114449	same	60	same	1	4761
JH	229	42	m	PSYC4802-20144	1.0	Block	exp	106	20141013.114455	same	60	diff	0	4226
JH	229	42	m	PSYC4802-20144	1.0	Block	exp	107	20141013.114502	diff	20	diff	1	11151
JH	229	42	m	PSYC4802-20144	1.0	Block	exp	108	20141013.114515	same	60	same	1	7116
JH	229	42	m	PSYC4802-20144	1.0	Block	exp	109	20141013.114524	diff	100	diff	1	5831
JH	229	42	m	PSYC4802-20144	1.0	Block	exp	110	20141013.114532	same	60	same	1	7991
JH	229	42	m	PSYC4802-20144	1.0	Block	exp	111	20141013.114542	diff	20	diff	1	4361
JH	229	42	m	PSYC4802-20144	1.0	Block	exp	112	20141013.114548	same	60	same	1	4941
JH	229	42	m	PSYC4802-20144	1.0	Block	exp	113	20141013.114555	diff	20	same	0	7242
JH	229	42	m	PSYC4802-20144	1.0	Block	exp	114	20141013.114605	diff	100	diff	1	7236
JH	229	42	m	PSYC4802-20144	1.0	Block	exp	115	20141013.114614	same	100	same	1	9786
JH	229	42	m	PSYC4802-20144	1.0	Block	exp	116	20141013.114626	diff	100	diff	1	3122
JH	229	42	m	PSYC4802-20144	1.0	Block	exp	117	20141013.114631	same	20	same	1	5466
JH	229	42	m	PSYC4802-20144	1.0	Block	exp	118	20141013.114638	diff	100	diff	1	3946
JH	229	42	m	PSYC4802-20144	1.0	Block	exp	119	20141013.114644	same	100	same	1	8542
JH	229	42	m	PSYC4802-20144	1.0	Block	exp	120	20141013.114655	diff	100	diff	1	2917
JH	229	42	m	PSYC4802-20144	1.0	Block	exp	121	20141013.114700	same	20	same	1	6076
JH	229	42	m	PSYC4802-20144	1.0	Block	exp	122	20141013.114708	same	60	same	1	5617
JH	229	42	m	PSYC4802-20144	1.0	Block	exp	123	20141013.114716	same	20	same	1	5031
JH	229	42	m	PSYC4802-20144	1.0	Block	exp	124	20141013.114723	same	100	same	1	10432
JH	229	42	m	PSYC4802-20144	1.0	Block	exp	125	20141013.114735	diff	20	diff	1	3192
JH	229	42	m	PSYC4802-20144	1.0	Block	exp	126	20141013.114741	diff	60	diff	1	3246
JH	229	42	m	PSYC4802-20144	1.0	Block	exp	127	20141013.114746	same	60	same	1	5286
JH	229	42	m	PSYC4802-20144	1.0	Block	exp	128	20141013.114753	diff	60	diff	1	2351
JH	229	42	m	PSYC4802-20144	1.0	Block	exp	129	20141013.114758	same	20	same	1	5072
JH	229	42	m	PSYC4802-20144	1.0	Block	exp	130	20141013.114805	diff	60	diff	1	4661
JH	229	42	m	PSYC4802-20144	1.0	Block	exp	131	20141013.114811	same	20	same	1	3916
JH	229	42	m	PSYC4802-20144	1.0	Block	exp	132	20141013.114817	diff	60	diff	1	5341
JH	229	42	m	PSYC4802-20144	1.0	Block	exp	133	20141013.114825	diff	20	diff	1	4777
JH	229	42	m	PSYC4802-20144	1.0	Block	exp	134	20141013.114831	same	20	same	1	6917
JH	229	42	m	PSYC4802-20144	1.0	Block	exp	135	20141013.114840	diff	100	diff	1	5076
JH	229	42	m	PSYC4802-20144	1.0	Block	exp	136	20141013.114847	same	100	same	1	8117
JH	229	42	m	PSYC4802-20144	1.0	Block	exp	137	20141013.114858	diff	60	diff	1	5741
JH	229	42	m	PSYC4802-20144	1.0	Block	exp	138	20141013.114905	diff	20	diff	1	2176
JH	229	42	m	PSYC4802-20144	1.0	Block	exp	139	20141013.114910	same	60	diff	0	4066
JH	229	42	m	PSYC4802-20144	1.0	Block	exp	140	20141013.114916	diff	100	diff	1	2392
JH	229	42	m	PSYC4802-20144	1.0	Block	exp	141	20141013.114920	diff	60	diff	1	2596
JH	229	42	m	PSYC4802-20144	1.0	Block	exp	142	20141013.114925	same	20	same	1	3937
JH	229	42	m	PSYC4802-20144	1.0	Block	exp	143	20141013.114931	diff	60	diff	1	3206
JH	229	42	m	PSYC4802-20144	1.0	Block	exp	144	20141013.114936	same	100	diff	0	3696
JH	229	42	m	PSYC4802-20144	1.0	Block	exp	145	20141013.114942	diff	100	diff	1	5176
JH	229	42	m	PSYC4802-20144	1.0	Block	exp	146	20141013.114949	same	100	diff	0	3606
JH	229	42	m	PSYC4802-20144	1.0	Block	exp	147	20141013.114954	same	60	diff	0	5206
JH	229	42	m	PSYC4802-20144	1.0	Block	exp	148	20141013.115002	diff	20	same	0	5347
JH	229	42	m	PSYC4802-20144	1.0	Block	exp	149	20141013.115009	diff	60	diff	1	6326
JH	229	42	m	PSYC4802-20144	1.0	Block	exp	150	20141013.115018	same	100	diff	0	5911
