Experimenter	Subject	Age	Sex	Experiment	Version	Block	TrialType	Trial	Timestamp	SameDiff	Rotation	Response	Acc	RT
tl	287	21	F	PSYC4802-20144	1.0.1	Block	practice	1	20141024.111924	diff	60	diff	1	18093
tl	287	21	F	PSYC4802-20144	1.0.1	Block	practice	2	20141024.111944	same	60	diff	0	5937
tl	287	21	F	PSYC4802-20144	1.0.1	Block	practice	3	20141024.111952	diff	20	diff	1	17668
tl	287	21	F	PSYC4802-20144	1.0.1	Block	practice	4	20141024.112012	diff	100	diff	1	9177
tl	287	21	F	PSYC4802-20144	1.0.1	Block	practice	5	20141024.112023	diff	60	diff	1	12447
tl	287	21	F	PSYC4802-20144	1.0.1	Block	practice	6	20141024.112037	same	20	same	1	3826
tl	287	21	F	PSYC4802-20144	1.0.1	Block	practice	7	20141024.112043	diff	100	diff	1	13313
tl	287	21	F	PSYC4802-20144	1.0.1	Block	practice	8	20141024.112058	same	20	same	1	7748
tl	287	21	F	PSYC4802-20144	1.0.1	Block	practice	9	20141024.112108	same	100	diff	0	4436
tl	287	21	F	PSYC4802-20144	1.0.1	Block	practice	10	20141024.112114	same	20	diff	0	4066
tl	287	21	F	PSYC4802-20144	1.0.1	Block	practice	11	20141024.112120	diff	20	diff	1	10392
tl	287	21	F	PSYC4802-20144	1.0.1	Block	practice	12	20141024.112133	diff	20	diff	1	4951
tl	287	21	F	PSYC4802-20144	1.0.1	Block	practice	13	20141024.112140	diff	60	diff	1	6576
tl	287	21	F	PSYC4802-20144	1.0.1	Block	practice	14	20141024.112148	same	100	same	1	9731
tl	287	21	F	PSYC4802-20144	1.0.1	Block	practice	15	20141024.112200	same	100	same	1	9842
tl	287	21	F	PSYC4802-20144	1.0.1	Block	practice	16	20141024.112212	same	60	same	1	7996
tl	287	21	F	PSYC4802-20144	1.0.1	Block	practice	17	20141024.112222	same	20	same	1	6988
tl	287	21	F	PSYC4802-20144	1.0.1	Block	practice	18	20141024.112231	same	60	same	1	10071
tl	287	21	F	PSYC4802-20144	1.0.1	Block	practice	19	20141024.112243	same	60	same	1	7581
tl	287	21	F	PSYC4802-20144	1.0.1	Block	practice	20	20141024.112252	diff	20	diff	1	3828
tl	287	21	F	PSYC4802-20144	1.0.1	Block	practice	21	20141024.112258	same	20	same	1	6091
tl	287	21	F	PSYC4802-20144	1.0.1	Block	practice	22	20141024.112306	same	100	same	1	7807
tl	287	21	F	PSYC4802-20144	1.0.1	Block	practice	23	20141024.112316	diff	20	diff	1	3841
tl	287	21	F	PSYC4802-20144	1.0.1	Block	practice	24	20141024.112322	diff	100	same	0	9172
tl	287	21	F	PSYC4802-20144	1.0.1	Block	practice	25	20141024.112333	diff	60	diff	1	2706
tl	287	21	F	PSYC4802-20144	1.0.1	Block	practice	26	20141024.112338	same	60	same	1	9812
tl	287	21	F	PSYC4802-20144	1.0.1	Block	practice	27	20141024.112349	diff	60	diff	1	3077
tl	287	21	F	PSYC4802-20144	1.0.1	Block	practice	28	20141024.112354	diff	100	diff	1	3601
tl	287	21	F	PSYC4802-20144	1.0.1	Block	practice	29	20141024.112400	diff	100	diff	1	3006
tl	287	21	F	PSYC4802-20144	1.0.1	Block	practice	30	20141024.112405	same	100	same	1	7367
tl	287	21	F	PSYC4802-20144	1.0.1	Block	exp	31	20141024.112415	diff	100	diff	1	1886
tl	287	21	F	PSYC4802-20144	1.0.1	Block	exp	32	20141024.112418	diff	60	diff	1	3376
tl	287	21	F	PSYC4802-20144	1.0.1	Block	exp	33	20141024.112424	diff	60	diff	1	2102
tl	287	21	F	PSYC4802-20144	1.0.1	Block	exp	34	20141024.112428	diff	20	diff	1	6348
tl	287	21	F	PSYC4802-20144	1.0.1	Block	exp	35	20141024.112436	diff	20	diff	1	5101
tl	287	21	F	PSYC4802-20144	1.0.1	Block	exp	36	20141024.112443	diff	20	diff	1	8066
tl	287	21	F	PSYC4802-20144	1.0.1	Block	exp	37	20141024.112454	same	20	same	1	5216
tl	287	21	F	PSYC4802-20144	1.0.1	Block	exp	38	20141024.112501	same	60	diff	0	3711
tl	287	21	F	PSYC4802-20144	1.0.1	Block	exp	39	20141024.112507	diff	100	diff	1	4651
tl	287	21	F	PSYC4802-20144	1.0.1	Block	exp	40	20141024.112513	diff	20	diff	1	14739
tl	287	21	F	PSYC4802-20144	1.0.1	Block	exp	41	20141024.112530	diff	100	diff	1	7918
tl	287	21	F	PSYC4802-20144	1.0.1	Block	exp	42	20141024.112540	same	20	same	1	3791
tl	287	21	F	PSYC4802-20144	1.0.1	Block	exp	43	20141024.112546	same	60	same	1	10972
tl	287	21	F	PSYC4802-20144	1.0.1	Block	exp	44	20141024.112559	same	60	diff	0	11047
tl	287	21	F	PSYC4802-20144	1.0.1	Block	exp	45	20141024.112612	same	60	same	1	9732
tl	287	21	F	PSYC4802-20144	1.0.1	Block	exp	46	20141024.112623	diff	60	diff	1	3006
tl	287	21	F	PSYC4802-20144	1.0.1	Block	exp	47	20141024.112628	same	100	same	1	7557
tl	287	21	F	PSYC4802-20144	1.0.1	Block	exp	48	20141024.112638	same	60	diff	0	5917
tl	287	21	F	PSYC4802-20144	1.0.1	Block	exp	49	20141024.112646	diff	60	diff	1	3801
tl	287	21	F	PSYC4802-20144	1.0.1	Block	exp	50	20141024.112652	same	20	same	1	5221
tl	287	21	F	PSYC4802-20144	1.0.1	Block	exp	51	20141024.112708	diff	60	diff	1	2676
tl	287	21	F	PSYC4802-20144	1.0.1	Block	exp	52	20141024.112713	same	60	same	1	3041
tl	287	21	F	PSYC4802-20144	1.0.1	Block	exp	53	20141024.112718	diff	60	diff	1	2366
tl	287	21	F	PSYC4802-20144	1.0.1	Block	exp	54	20141024.112722	diff	100	diff	1	3886
tl	287	21	F	PSYC4802-20144	1.0.1	Block	exp	55	20141024.112728	diff	60	diff	1	6947
tl	287	21	F	PSYC4802-20144	1.0.1	Block	exp	56	20141024.112737	diff	100	diff	1	4572
tl	287	21	F	PSYC4802-20144	1.0.1	Block	exp	57	20141024.112744	diff	60	diff	1	5251
tl	287	21	F	PSYC4802-20144	1.0.1	Block	exp	58	20141024.112751	same	60	same	1	7841
tl	287	21	F	PSYC4802-20144	1.0.1	Block	exp	59	20141024.112801	same	20	same	1	5641
tl	287	21	F	PSYC4802-20144	1.0.1	Block	exp	60	20141024.112808	same	100	same	1	7991
tl	287	21	F	PSYC4802-20144	1.0.1	Block	exp	61	20141024.112818	same	100	same	1	7878
tl	287	21	F	PSYC4802-20144	1.0.1	Block	exp	62	20141024.112828	same	100	same	1	7296
tl	287	21	F	PSYC4802-20144	1.0.1	Block	exp	63	20141024.112838	diff	100	same	0	7881
tl	287	21	F	PSYC4802-20144	1.0.1	Block	exp	64	20141024.112847	same	60	same	1	7537
tl	287	21	F	PSYC4802-20144	1.0.1	Block	exp	65	20141024.112857	same	20	same	1	14591
tl	287	21	F	PSYC4802-20144	1.0.1	Block	exp	66	20141024.112914	diff	60	diff	1	14082
tl	287	21	F	PSYC4802-20144	1.0.1	Block	exp	67	20141024.112930	same	20	same	1	5001
tl	287	21	F	PSYC4802-20144	1.0.1	Block	exp	68	20141024.112937	diff	20	diff	1	4312
tl	287	21	F	PSYC4802-20144	1.0.1	Block	exp	69	20141024.112943	diff	20	diff	1	3896
tl	287	21	F	PSYC4802-20144	1.0.1	Block	exp	70	20141024.112949	same	60	same	1	4956
tl	287	21	F	PSYC4802-20144	1.0.1	Block	exp	71	20141024.112956	diff	20	same	0	5181
tl	287	21	F	PSYC4802-20144	1.0.1	Block	exp	72	20141024.113003	same	100	same	1	17282
tl	287	21	F	PSYC4802-20144	1.0.1	Block	exp	73	20141024.113022	same	20	same	1	4021
tl	287	21	F	PSYC4802-20144	1.0.1	Block	exp	74	20141024.113028	diff	60	diff	1	3616
tl	287	21	F	PSYC4802-20144	1.0.1	Block	exp	75	20141024.113034	same	100	same	1	12502
tl	287	21	F	PSYC4802-20144	1.0.1	Block	exp	76	20141024.113048	diff	100	diff	1	9982
tl	287	21	F	PSYC4802-20144	1.0.1	Block	exp	77	20141024.113100	diff	100	diff	1	6322
tl	287	21	F	PSYC4802-20144	1.0.1	Block	exp	78	20141024.113109	same	60	same	1	5807
tl	287	21	F	PSYC4802-20144	1.0.1	Block	exp	79	20141024.113117	same	20	same	1	4976
tl	287	21	F	PSYC4802-20144	1.0.1	Block	exp	80	20141024.113124	same	100	same	1	10767
tl	287	21	F	PSYC4802-20144	1.0.1	Block	exp	81	20141024.113136	same	100	same	1	9304
tl	287	21	F	PSYC4802-20144	1.0.1	Block	exp	82	20141024.113148	diff	20	diff	1	1856
tl	287	21	F	PSYC4802-20144	1.0.1	Block	exp	83	20141024.113151	same	100	same	1	5518
tl	287	21	F	PSYC4802-20144	1.0.1	Block	exp	84	20141024.113159	diff	100	diff	1	5911
tl	287	21	F	PSYC4802-20144	1.0.1	Block	exp	85	20141024.113207	same	60	same	1	8063
tl	287	21	F	PSYC4802-20144	1.0.1	Block	exp	86	20141024.113217	diff	100	diff	1	5456
tl	287	21	F	PSYC4802-20144	1.0.1	Block	exp	87	20141024.113224	diff	60	diff	1	3121
tl	287	21	F	PSYC4802-20144	1.0.1	Block	exp	88	20141024.113230	diff	60	diff	1	2861
tl	287	21	F	PSYC4802-20144	1.0.1	Block	exp	89	20141024.113234	diff	60	diff	1	9629
tl	287	21	F	PSYC4802-20144	1.0.1	Block	exp	90	20141024.113246	same	20	same	1	3486
tl	287	21	F	PSYC4802-20144	1.0.1	Block	exp	91	20141024.113251	same	100	same	1	6286
tl	287	21	F	PSYC4802-20144	1.0.1	Block	exp	92	20141024.113300	same	60	same	1	4362
tl	287	21	F	PSYC4802-20144	1.0.1	Block	exp	93	20141024.113306	diff	60	diff	1	4646
tl	287	21	F	PSYC4802-20144	1.0.1	Block	exp	94	20141024.113313	same	20	same	1	4221
tl	287	21	F	PSYC4802-20144	1.0.1	Block	exp	95	20141024.113319	diff	60	same	0	9676
tl	287	21	F	PSYC4802-20144	1.0.1	Block	exp	96	20141024.113331	same	100	same	1	9052
tl	287	21	F	PSYC4802-20144	1.0.1	Block	exp	97	20141024.113342	same	100	same	1	13243
tl	287	21	F	PSYC4802-20144	1.0.1	Block	exp	98	20141024.113357	diff	100	diff	1	3456
tl	287	21	F	PSYC4802-20144	1.0.1	Block	exp	99	20141024.113402	diff	20	diff	1	4811
tl	287	21	F	PSYC4802-20144	1.0.1	Block	exp	100	20141024.113409	diff	60	diff	1	3877
tl	287	21	F	PSYC4802-20144	1.0.1	Block	exp	101	20141024.113423	diff	20	diff	1	2297
tl	287	21	F	PSYC4802-20144	1.0.1	Block	exp	102	20141024.113427	same	60	same	1	5983
tl	287	21	F	PSYC4802-20144	1.0.1	Block	exp	103	20141024.113435	same	60	same	1	4123
tl	287	21	F	PSYC4802-20144	1.0.1	Block	exp	104	20141024.113441	diff	100	same	0	11978
tl	287	21	F	PSYC4802-20144	1.0.1	Block	exp	105	20141024.113455	same	100	diff	0	6362
tl	287	21	F	PSYC4802-20144	1.0.1	Block	exp	106	20141024.113504	same	20	same	1	4466
tl	287	21	F	PSYC4802-20144	1.0.1	Block	exp	107	20141024.113510	same	60	same	1	11203
tl	287	21	F	PSYC4802-20144	1.0.1	Block	exp	108	20141024.113523	same	60	same	1	5452
tl	287	21	F	PSYC4802-20144	1.0.1	Block	exp	109	20141024.113531	same	20	same	1	5356
tl	287	21	F	PSYC4802-20144	1.0.1	Block	exp	110	20141024.113538	same	20	same	1	3721
tl	287	21	F	PSYC4802-20144	1.0.1	Block	exp	111	20141024.113544	same	100	same	1	5688
tl	287	21	F	PSYC4802-20144	1.0.1	Block	exp	112	20141024.113551	diff	100	diff	1	5896
tl	287	21	F	PSYC4802-20144	1.0.1	Block	exp	113	20141024.113559	diff	20	diff	1	1711
tl	287	21	F	PSYC4802-20144	1.0.1	Block	exp	114	20141024.113603	same	100	same	1	5591
tl	287	21	F	PSYC4802-20144	1.0.1	Block	exp	115	20141024.113611	same	20	same	1	3841
tl	287	21	F	PSYC4802-20144	1.0.1	Block	exp	116	20141024.113616	diff	20	diff	1	6047
tl	287	21	F	PSYC4802-20144	1.0.1	Block	exp	117	20141024.113624	diff	100	diff	1	2421
tl	287	21	F	PSYC4802-20144	1.0.1	Block	exp	118	20141024.113629	same	20	same	1	3312
tl	287	21	F	PSYC4802-20144	1.0.1	Block	exp	119	20141024.113634	diff	20	diff	1	3121
tl	287	21	F	PSYC4802-20144	1.0.1	Block	exp	120	20141024.113639	same	20	same	1	5487
tl	287	21	F	PSYC4802-20144	1.0.1	Block	exp	121	20141024.113647	diff	100	diff	1	3461
tl	287	21	F	PSYC4802-20144	1.0.1	Block	exp	122	20141024.113652	same	100	same	1	4753
tl	287	21	F	PSYC4802-20144	1.0.1	Block	exp	123	20141024.113659	diff	60	diff	1	5376
tl	287	21	F	PSYC4802-20144	1.0.1	Block	exp	124	20141024.113706	diff	20	diff	1	9079
tl	287	21	F	PSYC4802-20144	1.0.1	Block	exp	125	20141024.113717	same	100	same	1	8981
tl	287	21	F	PSYC4802-20144	1.0.1	Block	exp	126	20141024.113728	same	100	same	1	6087
tl	287	21	F	PSYC4802-20144	1.0.1	Block	exp	127	20141024.113736	diff	100	diff	1	2716
tl	287	21	F	PSYC4802-20144	1.0.1	Block	exp	128	20141024.113741	same	100	same	1	6041
tl	287	21	F	PSYC4802-20144	1.0.1	Block	exp	129	20141024.113749	diff	60	diff	1	5976
tl	287	21	F	PSYC4802-20144	1.0.1	Block	exp	130	20141024.113757	same	20	same	1	4436
tl	287	21	F	PSYC4802-20144	1.0.1	Block	exp	131	20141024.113803	diff	20	diff	1	4111
tl	287	21	F	PSYC4802-20144	1.0.1	Block	exp	132	20141024.113809	diff	100	diff	1	3126
tl	287	21	F	PSYC4802-20144	1.0.1	Block	exp	133	20141024.113815	diff	100	diff	1	5817
tl	287	21	F	PSYC4802-20144	1.0.1	Block	exp	134	20141024.113822	same	60	same	1	4176
tl	287	21	F	PSYC4802-20144	1.0.1	Block	exp	135	20141024.113829	same	20	same	1	4631
tl	287	21	F	PSYC4802-20144	1.0.1	Block	exp	136	20141024.113835	diff	60	diff	1	3776
tl	287	21	F	PSYC4802-20144	1.0.1	Block	exp	137	20141024.113841	diff	20	diff	1	3416
tl	287	21	F	PSYC4802-20144	1.0.1	Block	exp	138	20141024.113846	same	60	same	1	3231
tl	287	21	F	PSYC4802-20144	1.0.1	Block	exp	139	20141024.113851	same	20	same	1	4101
tl	287	21	F	PSYC4802-20144	1.0.1	Block	exp	140	20141024.113858	diff	20	diff	1	2636
tl	287	21	F	PSYC4802-20144	1.0.1	Block	exp	141	20141024.113902	same	60	same	1	4966
tl	287	21	F	PSYC4802-20144	1.0.1	Block	exp	142	20141024.113909	diff	20	diff	1	1851
tl	287	21	F	PSYC4802-20144	1.0.1	Block	exp	143	20141024.113913	diff	60	diff	1	1801
tl	287	21	F	PSYC4802-20144	1.0.1	Block	exp	144	20141024.113917	same	100	same	1	4591
tl	287	21	F	PSYC4802-20144	1.0.1	Block	exp	145	20141024.113923	diff	20	diff	1	3522
tl	287	21	F	PSYC4802-20144	1.0.1	Block	exp	146	20141024.113929	same	60	same	1	3261
tl	287	21	F	PSYC4802-20144	1.0.1	Block	exp	147	20141024.113934	diff	100	diff	1	3047
tl	287	21	F	PSYC4802-20144	1.0.1	Block	exp	148	20141024.113939	diff	100	diff	1	2646
tl	287	21	F	PSYC4802-20144	1.0.1	Block	exp	149	20141024.113944	diff	20	diff	1	7606
tl	287	21	F	PSYC4802-20144	1.0.1	Block	exp	150	20141024.113953	same	20	same	1	2851
