Experimenter	Subject	Age	Sex	Experiment	Version	Block	TrialType	Trial	Timestamp	SameDiff	Rotation	Response	Acc	RT
RCG	21	21	F	PSYC4802-20142	1.0	Block	practice	1	20140421.110755	same	100	diff	0	9540
RCG	21	21	F	PSYC4802-20142	1.0	Block	practice	2	20140421.110807	same	20	same	1	12329
RCG	21	21	F	PSYC4802-20142	1.0	Block	practice	3	20140421.110821	same	60	same	1	13888
RCG	21	21	F	PSYC4802-20142	1.0	Block	practice	4	20140421.110837	diff	20	diff	1	8362
RCG	21	21	F	PSYC4802-20142	1.0	Block	practice	5	20140421.110847	same	100	diff	0	20450
RCG	21	21	F	PSYC4802-20142	1.0	Block	practice	6	20140421.110910	same	60	diff	0	7905
RCG	21	21	F	PSYC4802-20142	1.0	Block	practice	7	20140421.110920	diff	100	diff	1	4853
RCG	21	21	F	PSYC4802-20142	1.0	Block	practice	8	20140421.110927	diff	20	diff	1	16220
RCG	21	21	F	PSYC4802-20142	1.0	Block	practice	9	20140421.110945	same	100	same	1	14650
RCG	21	21	F	PSYC4802-20142	1.0	Block	practice	10	20140421.111002	diff	100	same	0	14392
RCG	21	21	F	PSYC4802-20142	1.0	Block	practice	11	20140421.111019	same	20	same	1	9053
RCG	21	21	F	PSYC4802-20142	1.0	Block	practice	12	20140421.111030	same	60	same	1	4091
RCG	21	21	F	PSYC4802-20142	1.0	Block	practice	13	20140421.111036	diff	60	diff	1	13313
RCG	21	21	F	PSYC4802-20142	1.0	Block	practice	14	20140421.111051	diff	60	diff	1	16899
RCG	21	21	F	PSYC4802-20142	1.0	Block	practice	15	20140421.111111	same	20	same	1	7179
RCG	21	21	F	PSYC4802-20142	1.0	Block	practice	16	20140421.111120	same	60	same	1	8949
RCG	21	21	F	PSYC4802-20142	1.0	Block	practice	17	20140421.111131	same	60	diff	0	18100
RCG	21	21	F	PSYC4802-20142	1.0	Block	practice	18	20140421.111151	diff	100	diff	1	21640
RCG	21	21	F	PSYC4802-20142	1.0	Block	practice	19	20140421.111215	same	20	same	1	13799
RCG	21	21	F	PSYC4802-20142	1.0	Block	practice	20	20140421.111231	same	100	same	1	7706
RCG	21	21	F	PSYC4802-20142	1.0	Block	practice	21	20140421.111240	diff	60	same	0	20198
RCG	21	21	F	PSYC4802-20142	1.0	Block	practice	22	20140421.111303	diff	20	same	0	8069
RCG	21	21	F	PSYC4802-20142	1.0	Block	practice	23	20140421.111313	diff	60	diff	1	3025
RCG	21	21	F	PSYC4802-20142	1.0	Block	practice	24	20140421.111318	same	20	same	1	9956
RCG	21	21	F	PSYC4802-20142	1.0	Block	practice	25	20140421.111330	same	100	same	1	9834
RCG	21	21	F	PSYC4802-20142	1.0	Block	practice	26	20140421.111342	diff	100	same	0	7660
RCG	21	21	F	PSYC4802-20142	1.0	Block	practice	27	20140421.111352	diff	20	same	0	8755
RCG	21	21	F	PSYC4802-20142	1.0	Block	practice	28	20140421.111403	diff	20	diff	1	14222
RCG	21	21	F	PSYC4802-20142	1.0	Block	practice	29	20140421.111419	diff	100	same	0	9007
RCG	21	21	F	PSYC4802-20142	1.0	Block	practice	30	20140421.111430	diff	60	same	0	13853
RCG	21	21	F	PSYC4802-20142	1.0	Block	exp	31	20140421.111446	same	60	same	1	10806
RCG	21	21	F	PSYC4802-20142	1.0	Block	exp	32	20140421.111459	same	60	diff	0	7403
RCG	21	21	F	PSYC4802-20142	1.0	Block	exp	33	20140421.111508	same	60	same	1	6288
RCG	21	21	F	PSYC4802-20142	1.0	Block	exp	34	20140421.111517	same	20	same	1	4144
RCG	21	21	F	PSYC4802-20142	1.0	Block	exp	35	20140421.111523	diff	60	diff	1	11005
RCG	21	21	F	PSYC4802-20142	1.0	Block	exp	36	20140421.111536	same	60	same	1	7114
RCG	21	21	F	PSYC4802-20142	1.0	Block	exp	37	20140421.111545	diff	20	same	0	10659
RCG	21	21	F	PSYC4802-20142	1.0	Block	exp	38	20140421.111558	same	60	same	1	9617
RCG	21	21	F	PSYC4802-20142	1.0	Block	exp	39	20140421.111610	same	60	same	1	2878
RCG	21	21	F	PSYC4802-20142	1.0	Block	exp	40	20140421.111615	diff	100	diff	1	10706
RCG	21	21	F	PSYC4802-20142	1.0	Block	exp	41	20140421.111628	diff	100	diff	1	4566
RCG	21	21	F	PSYC4802-20142	1.0	Block	exp	42	20140421.111634	diff	100	diff	1	7501
RCG	21	21	F	PSYC4802-20142	1.0	Block	exp	43	20140421.111644	same	100	same	1	8614
RCG	21	21	F	PSYC4802-20142	1.0	Block	exp	44	20140421.111655	same	20	same	1	2503
RCG	21	21	F	PSYC4802-20142	1.0	Block	exp	45	20140421.111659	same	20	same	1	9317
RCG	21	21	F	PSYC4802-20142	1.0	Block	exp	46	20140421.111711	same	60	same	1	4805
RCG	21	21	F	PSYC4802-20142	1.0	Block	exp	47	20140421.111718	diff	60	same	0	3400
RCG	21	21	F	PSYC4802-20142	1.0	Block	exp	48	20140421.111723	diff	60	same	0	4121
RCG	21	21	F	PSYC4802-20142	1.0	Block	exp	49	20140421.111729	diff	60	diff	1	4261
RCG	21	21	F	PSYC4802-20142	1.0	Block	exp	50	20140421.111735	diff	100	diff	1	7372
RCG	21	21	F	PSYC4802-20142	1.0	Block	exp	51	20140421.111749	same	100	same	1	6376
RCG	21	21	F	PSYC4802-20142	1.0	Block	exp	52	20140421.111757	same	20	same	1	3154
RCG	21	21	F	PSYC4802-20142	1.0	Block	exp	53	20140421.111802	same	100	same	1	7437
RCG	21	21	F	PSYC4802-20142	1.0	Block	exp	54	20140421.111812	diff	100	diff	1	10354
RCG	21	21	F	PSYC4802-20142	1.0	Block	exp	55	20140421.111824	same	100	same	1	8603
RCG	21	21	F	PSYC4802-20142	1.0	Block	exp	56	20140421.111835	diff	100	same	0	11803
RCG	21	21	F	PSYC4802-20142	1.0	Block	exp	57	20140421.111849	same	60	same	1	11251
RCG	21	21	F	PSYC4802-20142	1.0	Block	exp	58	20140421.111902	diff	60	diff	1	6218
RCG	21	21	F	PSYC4802-20142	1.0	Block	exp	59	20140421.111911	diff	60	diff	1	9551
RCG	21	21	F	PSYC4802-20142	1.0	Block	exp	60	20140421.111922	same	100	diff	0	4671
RCG	21	21	F	PSYC4802-20142	1.0	Block	exp	61	20140421.111929	diff	20	same	0	4073
RCG	21	21	F	PSYC4802-20142	1.0	Block	exp	62	20140421.111935	diff	20	diff	1	10823
RCG	21	21	F	PSYC4802-20142	1.0	Block	exp	63	20140421.111948	same	60	same	1	9346
RCG	21	21	F	PSYC4802-20142	1.0	Block	exp	64	20140421.111959	same	20	same	1	5064
RCG	21	21	F	PSYC4802-20142	1.0	Block	exp	65	20140421.112006	diff	20	same	0	11356
RCG	21	21	F	PSYC4802-20142	1.0	Block	exp	66	20140421.112020	diff	20	diff	1	10231
RCG	21	21	F	PSYC4802-20142	1.0	Block	exp	67	20140421.112032	same	60	same	1	8936
RCG	21	21	F	PSYC4802-20142	1.0	Block	exp	68	20140421.112043	same	20	same	1	3681
RCG	21	21	F	PSYC4802-20142	1.0	Block	exp	69	20140421.112049	same	100	diff	0	5385
RCG	21	21	F	PSYC4802-20142	1.0	Block	exp	70	20140421.112056	same	20	same	1	4027
RCG	21	21	F	PSYC4802-20142	1.0	Block	exp	71	20140421.112102	same	100	diff	0	5474
RCG	21	21	F	PSYC4802-20142	1.0	Block	exp	72	20140421.112110	diff	60	same	0	12816
RCG	21	21	F	PSYC4802-20142	1.0	Block	exp	73	20140421.112125	diff	100	same	0	9071
RCG	21	21	F	PSYC4802-20142	1.0	Block	exp	74	20140421.112136	diff	20	diff	1	9324
RCG	21	21	F	PSYC4802-20142	1.0	Block	exp	75	20140421.112147	same	60	same	1	8117
RCG	21	21	F	PSYC4802-20142	1.0	Block	exp	76	20140421.112157	same	20	same	1	7805
RCG	21	21	F	PSYC4802-20142	1.0	Block	exp	77	20140421.112207	same	60	same	1	4419
RCG	21	21	F	PSYC4802-20142	1.0	Block	exp	78	20140421.112214	diff	20	diff	1	10489
RCG	21	21	F	PSYC4802-20142	1.0	Block	exp	79	20140421.112226	diff	60	diff	1	9617
RCG	21	21	F	PSYC4802-20142	1.0	Block	exp	80	20140421.112238	same	60	same	1	6335
RCG	21	21	F	PSYC4802-20142	1.0	Block	exp	81	20140421.112246	same	20	same	1	10601
RCG	21	21	F	PSYC4802-20142	1.0	Block	exp	82	20140421.112259	diff	20	diff	1	8778
RCG	21	21	F	PSYC4802-20142	1.0	Block	exp	83	20140421.112310	diff	60	same	0	4039
RCG	21	21	F	PSYC4802-20142	1.0	Block	exp	84	20140421.112316	diff	100	diff	1	13023
RCG	21	21	F	PSYC4802-20142	1.0	Block	exp	85	20140421.112331	diff	60	same	0	5421
RCG	21	21	F	PSYC4802-20142	1.0	Block	exp	86	20140421.112338	same	20	same	1	4571
RCG	21	21	F	PSYC4802-20142	1.0	Block	exp	87	20140421.112345	same	60	same	1	9042
RCG	21	21	F	PSYC4802-20142	1.0	Block	exp	88	20140421.112356	diff	100	same	0	4003
RCG	21	21	F	PSYC4802-20142	1.0	Block	exp	89	20140421.112402	same	60	same	1	4367
RCG	21	21	F	PSYC4802-20142	1.0	Block	exp	90	20140421.112408	diff	100	same	0	10595
RCG	21	21	F	PSYC4802-20142	1.0	Block	exp	91	20140421.112421	diff	60	same	0	7706
RCG	21	21	F	PSYC4802-20142	1.0	Block	exp	92	20140421.112431	diff	60	diff	1	8321
RCG	21	21	F	PSYC4802-20142	1.0	Block	exp	93	20140421.112441	diff	100	diff	1	6077
RCG	21	21	F	PSYC4802-20142	1.0	Block	exp	94	20140421.112449	same	60	same	1	4689
RCG	21	21	F	PSYC4802-20142	1.0	Block	exp	95	20140421.112456	same	100	same	1	4272
RCG	21	21	F	PSYC4802-20142	1.0	Block	exp	96	20140421.112502	diff	100	same	0	10185
RCG	21	21	F	PSYC4802-20142	1.0	Block	exp	97	20140421.112515	same	60	same	1	5450
RCG	21	21	F	PSYC4802-20142	1.0	Block	exp	98	20140421.112522	diff	100	diff	1	4525
RCG	21	21	F	PSYC4802-20142	1.0	Block	exp	99	20140421.112529	same	60	same	1	3804
RCG	21	21	F	PSYC4802-20142	1.0	Block	exp	100	20140421.112535	diff	20	diff	1	8233
RCG	21	21	F	PSYC4802-20142	1.0	Block	exp	101	20140421.112547	same	100	diff	0	8878
RCG	21	21	F	PSYC4802-20142	1.0	Block	exp	102	20140421.112558	same	100	same	1	4612
RCG	21	21	F	PSYC4802-20142	1.0	Block	exp	103	20140421.112605	same	100	same	1	7876
RCG	21	21	F	PSYC4802-20142	1.0	Block	exp	104	20140421.112615	same	20	same	1	4068
RCG	21	21	F	PSYC4802-20142	1.0	Block	exp	105	20140421.112621	diff	100	diff	1	10068
RCG	21	21	F	PSYC4802-20142	1.0	Block	exp	106	20140421.112633	same	20	same	1	3622
RCG	21	21	F	PSYC4802-20142	1.0	Block	exp	107	20140421.112639	diff	20	diff	1	9231
RCG	21	21	F	PSYC4802-20142	1.0	Block	exp	108	20140421.112650	diff	100	same	0	4981
RCG	21	21	F	PSYC4802-20142	1.0	Block	exp	109	20140421.112657	diff	60	same	0	8550
RCG	21	21	F	PSYC4802-20142	1.0	Block	exp	110	20140421.112708	same	20	same	1	5931
RCG	21	21	F	PSYC4802-20142	1.0	Block	exp	111	20140421.112716	same	100	same	1	9370
RCG	21	21	F	PSYC4802-20142	1.0	Block	exp	112	20140421.112727	diff	100	same	0	20609
RCG	21	21	F	PSYC4802-20142	1.0	Block	exp	113	20140421.112750	same	60	same	1	5245
RCG	21	21	F	PSYC4802-20142	1.0	Block	exp	114	20140421.112757	diff	20	same	0	3663
RCG	21	21	F	PSYC4802-20142	1.0	Block	exp	115	20140421.112803	diff	100	diff	1	13695
RCG	21	21	F	PSYC4802-20142	1.0	Block	exp	116	20140421.112819	diff	60	same	0	4097
RCG	21	21	F	PSYC4802-20142	1.0	Block	exp	117	20140421.112825	diff	20	same	0	5772
RCG	21	21	F	PSYC4802-20142	1.0	Block	exp	118	20140421.112833	same	100	diff	0	540
RCG	21	21	F	PSYC4802-20142	1.0	Block	exp	119	20140421.112835	same	100	same	1	3915
RCG	21	21	F	PSYC4802-20142	1.0	Block	exp	120	20140421.112841	diff	60	same	0	4313
RCG	21	21	F	PSYC4802-20142	1.0	Block	exp	121	20140421.112847	diff	60	same	0	2439
RCG	21	21	F	PSYC4802-20142	1.0	Block	exp	122	20140421.112852	same	20	diff	0	1577
RCG	21	21	F	PSYC4802-20142	1.0	Block	exp	123	20140421.112855	same	20	same	1	3318
RCG	21	21	F	PSYC4802-20142	1.0	Block	exp	124	20140421.112901	same	20	same	1	2925
RCG	21	21	F	PSYC4802-20142	1.0	Block	exp	125	20140421.112906	diff	60	diff	1	6646
RCG	21	21	F	PSYC4802-20142	1.0	Block	exp	126	20140421.112914	diff	20	same	0	4026
RCG	21	21	F	PSYC4802-20142	1.0	Block	exp	127	20140421.112921	diff	20	diff	1	3071
RCG	21	21	F	PSYC4802-20142	1.0	Block	exp	128	20140421.112926	same	60	same	1	3382
RCG	21	21	F	PSYC4802-20142	1.0	Block	exp	129	20140421.112931	same	20	same	1	2438
RCG	21	21	F	PSYC4802-20142	1.0	Block	exp	130	20140421.112936	diff	60	same	0	4249
RCG	21	21	F	PSYC4802-20142	1.0	Block	exp	131	20140421.112942	same	20	same	1	2644
RCG	21	21	F	PSYC4802-20142	1.0	Block	exp	132	20140421.112947	same	100	diff	0	2567
RCG	21	21	F	PSYC4802-20142	1.0	Block	exp	133	20140421.112951	diff	20	same	0	3611
RCG	21	21	F	PSYC4802-20142	1.0	Block	exp	134	20140421.112957	diff	20	diff	1	4185
RCG	21	21	F	PSYC4802-20142	1.0	Block	exp	135	20140421.113003	diff	60	same	0	7273
RCG	21	21	F	PSYC4802-20142	1.0	Block	exp	136	20140421.113012	diff	60	diff	1	4537
RCG	21	21	F	PSYC4802-20142	1.0	Block	exp	137	20140421.113019	same	20	same	1	6798
RCG	21	21	F	PSYC4802-20142	1.0	Block	exp	138	20140421.113028	diff	20	same	0	10924
RCG	21	21	F	PSYC4802-20142	1.0	Block	exp	139	20140421.113041	same	100	diff	0	6370
RCG	21	21	F	PSYC4802-20142	1.0	Block	exp	140	20140421.113049	diff	100	same	0	985
RCG	21	21	F	PSYC4802-20142	1.0	Block	exp	141	20140421.113052	same	20	same	1	3206
RCG	21	21	F	PSYC4802-20142	1.0	Block	exp	142	20140421.113057	diff	100	same	0	3423
RCG	21	21	F	PSYC4802-20142	1.0	Block	exp	143	20140421.113103	diff	20	diff	1	3377
RCG	21	21	F	PSYC4802-20142	1.0	Block	exp	144	20140421.113108	same	100	diff	0	3265
RCG	21	21	F	PSYC4802-20142	1.0	Block	exp	145	20140421.113113	same	100	same	1	1730
RCG	21	21	F	PSYC4802-20142	1.0	Block	exp	146	20140421.113117	same	100	diff	0	4056
RCG	21	21	F	PSYC4802-20142	1.0	Block	exp	147	20140421.113123	diff	100	same	0	10337
RCG	21	21	F	PSYC4802-20142	1.0	Block	exp	148	20140421.113136	diff	20	diff	1	4126
RCG	21	21	F	PSYC4802-20142	1.0	Block	exp	149	20140421.113142	diff	20	same	0	4155
RCG	21	21	F	PSYC4802-20142	1.0	Block	exp	150	20140421.113148	same	100	same	1	7314
