Experimenter	Subject	Age	Sex	Experiment	Version	Block	TrialType	Trial	Timestamp	SameDiff	Rotation	Response	Acc	RT
PRB	109	20	m	PSYC4802-20142	1.0	Block	practice	1	20140530.111412	same	20	same	1	10671
PRB	109	20	m	PSYC4802-20142	1.0	Block	practice	2	20140530.111425	same	100	same	1	9786
PRB	109	20	m	PSYC4802-20142	1.0	Block	practice	3	20140530.111436	diff	60	diff	1	3675
PRB	109	20	m	PSYC4802-20142	1.0	Block	practice	4	20140530.111442	same	100	same	1	2854
PRB	109	20	m	PSYC4802-20142	1.0	Block	practice	5	20140530.111447	same	60	same	1	5192
PRB	109	20	m	PSYC4802-20142	1.0	Block	practice	6	20140530.111454	diff	100	diff	1	2684
PRB	109	20	m	PSYC4802-20142	1.0	Block	practice	7	20140530.111459	diff	100	same	0	1677
PRB	109	20	m	PSYC4802-20142	1.0	Block	practice	8	20140530.111502	same	20	same	1	1595
PRB	109	20	m	PSYC4802-20142	1.0	Block	practice	9	20140530.111506	diff	20	same	0	2116
PRB	109	20	m	PSYC4802-20142	1.0	Block	practice	10	20140530.111510	diff	100	diff	1	4718
PRB	109	20	m	PSYC4802-20142	1.0	Block	practice	11	20140530.111517	diff	60	diff	1	7238
PRB	109	20	m	PSYC4802-20142	1.0	Block	practice	12	20140530.111526	same	20	same	1	2187
PRB	109	20	m	PSYC4802-20142	1.0	Block	practice	13	20140530.111530	diff	60	diff	1	2052
PRB	109	20	m	PSYC4802-20142	1.0	Block	practice	14	20140530.111534	diff	100	diff	1	3259
PRB	109	20	m	PSYC4802-20142	1.0	Block	practice	15	20140530.111540	same	100	same	1	4167
PRB	109	20	m	PSYC4802-20142	1.0	Block	practice	16	20140530.111546	same	20	same	1	3440
PRB	109	20	m	PSYC4802-20142	1.0	Block	practice	17	20140530.111551	diff	20	diff	1	3493
PRB	109	20	m	PSYC4802-20142	1.0	Block	practice	18	20140530.111557	same	60	diff	0	3868
PRB	109	20	m	PSYC4802-20142	1.0	Block	practice	19	20140530.111603	diff	100	diff	1	3118
PRB	109	20	m	PSYC4802-20142	1.0	Block	practice	20	20140530.111608	diff	20	same	0	2720
PRB	109	20	m	PSYC4802-20142	1.0	Block	practice	21	20140530.111612	same	100	same	1	1430
PRB	109	20	m	PSYC4802-20142	1.0	Block	practice	22	20140530.111616	same	60	same	1	1331
PRB	109	20	m	PSYC4802-20142	1.0	Block	practice	23	20140530.111619	same	60	same	1	2216
PRB	109	20	m	PSYC4802-20142	1.0	Block	practice	24	20140530.111623	same	60	same	1	2907
PRB	109	20	m	PSYC4802-20142	1.0	Block	practice	25	20140530.111628	same	20	same	1	1958
PRB	109	20	m	PSYC4802-20142	1.0	Block	practice	26	20140530.111632	same	100	diff	0	3891
PRB	109	20	m	PSYC4802-20142	1.0	Block	practice	27	20140530.111638	diff	60	diff	1	6335
PRB	109	20	m	PSYC4802-20142	1.0	Block	practice	28	20140530.111647	diff	20	same	0	5216
PRB	109	20	m	PSYC4802-20142	1.0	Block	practice	29	20140530.111654	diff	60	diff	1	6042
PRB	109	20	m	PSYC4802-20142	1.0	Block	practice	30	20140530.111702	diff	20	diff	1	6130
PRB	109	20	m	PSYC4802-20142	1.0	Block	exp	31	20140530.111710	diff	60	same	0	3441
PRB	109	20	m	PSYC4802-20142	1.0	Block	exp	32	20140530.111715	diff	100	diff	1	6212
PRB	109	20	m	PSYC4802-20142	1.0	Block	exp	33	20140530.111724	same	100	same	1	3616
PRB	109	20	m	PSYC4802-20142	1.0	Block	exp	34	20140530.111729	diff	60	diff	1	10331
PRB	109	20	m	PSYC4802-20142	1.0	Block	exp	35	20140530.111742	same	20	same	1	10454
PRB	109	20	m	PSYC4802-20142	1.0	Block	exp	36	20140530.111754	diff	20	diff	1	6165
PRB	109	20	m	PSYC4802-20142	1.0	Block	exp	37	20140530.111802	diff	20	diff	1	3394
PRB	109	20	m	PSYC4802-20142	1.0	Block	exp	38	20140530.111808	same	100	diff	0	6552
PRB	109	20	m	PSYC4802-20142	1.0	Block	exp	39	20140530.111816	diff	100	diff	1	4068
PRB	109	20	m	PSYC4802-20142	1.0	Block	exp	40	20140530.111822	diff	20	same	0	4460
PRB	109	20	m	PSYC4802-20142	1.0	Block	exp	41	20140530.111829	same	60	same	1	6663
PRB	109	20	m	PSYC4802-20142	1.0	Block	exp	42	20140530.111837	diff	20	same	0	3365
PRB	109	20	m	PSYC4802-20142	1.0	Block	exp	43	20140530.111843	same	100	diff	0	5842
PRB	109	20	m	PSYC4802-20142	1.0	Block	exp	44	20140530.111851	same	100	same	1	4108
PRB	109	20	m	PSYC4802-20142	1.0	Block	exp	45	20140530.111857	same	100	diff	0	3781
PRB	109	20	m	PSYC4802-20142	1.0	Block	exp	46	20140530.111902	diff	100	diff	1	9141
PRB	109	20	m	PSYC4802-20142	1.0	Block	exp	47	20140530.111914	diff	100	same	0	3083
PRB	109	20	m	PSYC4802-20142	1.0	Block	exp	48	20140530.111919	diff	60	diff	1	6042
PRB	109	20	m	PSYC4802-20142	1.0	Block	exp	49	20140530.111927	diff	20	diff	1	4049
PRB	109	20	m	PSYC4802-20142	1.0	Block	exp	50	20140530.111933	same	100	same	1	1618
PRB	109	20	m	PSYC4802-20142	1.0	Block	exp	51	20140530.111939	diff	60	same	0	1114
PRB	109	20	m	PSYC4802-20142	1.0	Block	exp	52	20140530.111943	diff	60	same	0	217
PRB	109	20	m	PSYC4802-20142	1.0	Block	exp	53	20140530.111945	same	100	diff	0	277
PRB	109	20	m	PSYC4802-20142	1.0	Block	exp	54	20140530.111947	diff	100	same	0	2087
PRB	109	20	m	PSYC4802-20142	1.0	Block	exp	55	20140530.111951	same	100	same	1	3423
PRB	109	20	m	PSYC4802-20142	1.0	Block	exp	56	20140530.111957	same	20	same	1	2157
PRB	109	20	m	PSYC4802-20142	1.0	Block	exp	57	20140530.112001	diff	20	diff	1	827
PRB	109	20	m	PSYC4802-20142	1.0	Block	exp	58	20140530.112004	diff	100	same	0	3552
PRB	109	20	m	PSYC4802-20142	1.0	Block	exp	59	20140530.112009	same	20	same	1	323
PRB	109	20	m	PSYC4802-20142	1.0	Block	exp	60	20140530.112012	diff	60	diff	1	312
PRB	109	20	m	PSYC4802-20142	1.0	Block	exp	61	20140530.112014	same	60	diff	0	288
PRB	109	20	m	PSYC4802-20142	1.0	Block	exp	62	20140530.112016	same	20	diff	0	154
PRB	109	20	m	PSYC4802-20142	1.0	Block	exp	63	20140530.112018	same	100	diff	0	136
PRB	109	20	m	PSYC4802-20142	1.0	Block	exp	64	20140530.112020	diff	100	diff	1	218
PRB	109	20	m	PSYC4802-20142	1.0	Block	exp	65	20140530.112023	same	100	diff	0	259
PRB	109	20	m	PSYC4802-20142	1.0	Block	exp	66	20140530.112025	diff	100	diff	1	2462
PRB	109	20	m	PSYC4802-20142	1.0	Block	exp	67	20140530.112029	diff	100	same	0	3751
PRB	109	20	m	PSYC4802-20142	1.0	Block	exp	68	20140530.112035	same	100	diff	0	3581
PRB	109	20	m	PSYC4802-20142	1.0	Block	exp	69	20140530.112041	same	60	diff	0	306
PRB	109	20	m	PSYC4802-20142	1.0	Block	exp	70	20140530.112043	same	60	diff	0	3060
PRB	109	20	m	PSYC4802-20142	1.0	Block	exp	71	20140530.112048	same	20	diff	0	1748
PRB	109	20	m	PSYC4802-20142	1.0	Block	exp	72	20140530.112052	same	20	same	1	5532
PRB	109	20	m	PSYC4802-20142	1.0	Block	exp	73	20140530.112059	diff	60	diff	1	5309
PRB	109	20	m	PSYC4802-20142	1.0	Block	exp	74	20140530.112107	diff	100	same	0	3711
PRB	109	20	m	PSYC4802-20142	1.0	Block	exp	75	20140530.112112	same	100	diff	0	2263
PRB	109	20	m	PSYC4802-20142	1.0	Block	exp	76	20140530.112117	same	60	same	1	4137
PRB	109	20	m	PSYC4802-20142	1.0	Block	exp	77	20140530.112123	diff	60	diff	1	9237
PRB	109	20	m	PSYC4802-20142	1.0	Block	exp	78	20140530.112134	same	100	same	1	6628
PRB	109	20	m	PSYC4802-20142	1.0	Block	exp	79	20140530.112143	same	20	same	1	6523
PRB	109	20	m	PSYC4802-20142	1.0	Block	exp	80	20140530.112151	same	100	diff	0	8579
PRB	109	20	m	PSYC4802-20142	1.0	Block	exp	81	20140530.112202	same	20	same	1	3927
PRB	109	20	m	PSYC4802-20142	1.0	Block	exp	82	20140530.112208	diff	60	same	0	6347
PRB	109	20	m	PSYC4802-20142	1.0	Block	exp	83	20140530.112216	same	60	diff	0	4589
PRB	109	20	m	PSYC4802-20142	1.0	Block	exp	84	20140530.112223	diff	20	same	0	7852
PRB	109	20	m	PSYC4802-20142	1.0	Block	exp	85	20140530.112233	same	100	diff	0	270
PRB	109	20	m	PSYC4802-20142	1.0	Block	exp	86	20140530.112235	same	20	same	1	112
PRB	109	20	m	PSYC4802-20142	1.0	Block	exp	87	20140530.112237	same	20	same	1	7905
PRB	109	20	m	PSYC4802-20142	1.0	Block	exp	88	20140530.112247	same	60	same	1	7601
PRB	109	20	m	PSYC4802-20142	1.0	Block	exp	89	20140530.112257	diff	60	same	0	7829
PRB	109	20	m	PSYC4802-20142	1.0	Block	exp	90	20140530.112306	diff	100	diff	1	25
PRB	109	20	m	PSYC4802-20142	1.0	Block	exp	91	20140530.112308	diff	20	diff	1	294
PRB	109	20	m	PSYC4802-20142	1.0	Block	exp	92	20140530.112311	same	100	diff	0	283
PRB	109	20	m	PSYC4802-20142	1.0	Block	exp	93	20140530.112313	diff	100	same	0	329
PRB	109	20	m	PSYC4802-20142	1.0	Block	exp	94	20140530.112315	same	60	diff	0	5754
PRB	109	20	m	PSYC4802-20142	1.0	Block	exp	95	20140530.112323	same	20	same	1	4642
PRB	109	20	m	PSYC4802-20142	1.0	Block	exp	96	20140530.112330	diff	20	same	0	423
PRB	109	20	m	PSYC4802-20142	1.0	Block	exp	97	20140530.112332	same	60	diff	0	1
PRB	109	20	m	PSYC4802-20142	1.0	Block	exp	98	20140530.112334	same	60	diff	0	229
PRB	109	20	m	PSYC4802-20142	1.0	Block	exp	99	20140530.112336	diff	20	diff	1	464
PRB	109	20	m	PSYC4802-20142	1.0	Block	exp	100	20140530.112339	same	100	diff	0	259
PRB	109	20	m	PSYC4802-20142	1.0	Block	exp	101	20140530.112343	same	20	diff	0	1168
PRB	109	20	m	PSYC4802-20142	1.0	Block	exp	102	20140530.112346	same	100	diff	0	857
PRB	109	20	m	PSYC4802-20142	1.0	Block	exp	103	20140530.112349	diff	100	diff	1	1548
PRB	109	20	m	PSYC4802-20142	1.0	Block	exp	104	20140530.112352	diff	60	diff	1	5233
PRB	109	20	m	PSYC4802-20142	1.0	Block	exp	105	20140530.112400	diff	100	diff	1	9698
PRB	109	20	m	PSYC4802-20142	1.0	Block	exp	106	20140530.112411	diff	100	diff	1	4994
PRB	109	20	m	PSYC4802-20142	1.0	Block	exp	107	20140530.112418	diff	20	diff	1	6540
PRB	109	20	m	PSYC4802-20142	1.0	Block	exp	108	20140530.112427	same	60	same	1	4946
PRB	109	20	m	PSYC4802-20142	1.0	Block	exp	109	20140530.112434	diff	60	diff	1	265
PRB	109	20	m	PSYC4802-20142	1.0	Block	exp	110	20140530.112436	same	20	diff	0	189
PRB	109	20	m	PSYC4802-20142	1.0	Block	exp	111	20140530.112438	diff	60	diff	1	183
PRB	109	20	m	PSYC4802-20142	1.0	Block	exp	112	20140530.112440	same	20	diff	0	200
PRB	109	20	m	PSYC4802-20142	1.0	Block	exp	113	20140530.112443	diff	20	same	0	77
PRB	109	20	m	PSYC4802-20142	1.0	Block	exp	114	20140530.112445	diff	100	diff	1	60
PRB	109	20	m	PSYC4802-20142	1.0	Block	exp	115	20140530.112447	diff	60	diff	1	19
PRB	109	20	m	PSYC4802-20142	1.0	Block	exp	116	20140530.112449	same	60	diff	0	7
PRB	109	20	m	PSYC4802-20142	1.0	Block	exp	117	20140530.112451	same	60	diff	0	1
PRB	109	20	m	PSYC4802-20142	1.0	Block	exp	118	20140530.112453	same	60	same	1	4864
PRB	109	20	m	PSYC4802-20142	1.0	Block	exp	119	20140530.112500	diff	20	diff	1	6224
PRB	109	20	m	PSYC4802-20142	1.0	Block	exp	120	20140530.112508	same	60	diff	0	71
PRB	109	20	m	PSYC4802-20142	1.0	Block	exp	121	20140530.112510	diff	60	diff	1	364
PRB	109	20	m	PSYC4802-20142	1.0	Block	exp	122	20140530.112512	same	100	diff	0	12224
PRB	109	20	m	PSYC4802-20142	1.0	Block	exp	123	20140530.112526	same	20	diff	0	734
PRB	109	20	m	PSYC4802-20142	1.0	Block	exp	124	20140530.112529	same	20	diff	0	154
PRB	109	20	m	PSYC4802-20142	1.0	Block	exp	125	20140530.112531	diff	20	diff	1	4284
PRB	109	20	m	PSYC4802-20142	1.0	Block	exp	126	20140530.112538	same	60	diff	0	1618
PRB	109	20	m	PSYC4802-20142	1.0	Block	exp	127	20140530.112541	diff	100	diff	1	311
PRB	109	20	m	PSYC4802-20142	1.0	Block	exp	128	20140530.112544	diff	60	diff	1	159
PRB	109	20	m	PSYC4802-20142	1.0	Block	exp	129	20140530.112546	diff	100	diff	1	1
PRB	109	20	m	PSYC4802-20142	1.0	Block	exp	130	20140530.112548	same	60	diff	0	95
PRB	109	20	m	PSYC4802-20142	1.0	Block	exp	131	20140530.112550	diff	20	diff	1	13
PRB	109	20	m	PSYC4802-20142	1.0	Block	exp	132	20140530.112552	diff	20	diff	1	1
PRB	109	20	m	PSYC4802-20142	1.0	Block	exp	133	20140530.112554	diff	20	diff	1	107
PRB	109	20	m	PSYC4802-20142	1.0	Block	exp	134	20140530.112556	diff	20	diff	1	1
PRB	109	20	m	PSYC4802-20142	1.0	Block	exp	135	20140530.112558	diff	60	diff	1	1
PRB	109	20	m	PSYC4802-20142	1.0	Block	exp	136	20140530.112600	diff	20	diff	1	1
PRB	109	20	m	PSYC4802-20142	1.0	Block	exp	137	20140530.112602	diff	60	diff	1	1
PRB	109	20	m	PSYC4802-20142	1.0	Block	exp	138	20140530.112604	diff	60	diff	1	7
PRB	109	20	m	PSYC4802-20142	1.0	Block	exp	139	20140530.112605	same	60	diff	0	1
PRB	109	20	m	PSYC4802-20142	1.0	Block	exp	140	20140530.112607	same	100	diff	0	59
PRB	109	20	m	PSYC4802-20142	1.0	Block	exp	141	20140530.112609	same	20	diff	0	106
PRB	109	20	m	PSYC4802-20142	1.0	Block	exp	142	20140530.112612	same	20	diff	0	288
PRB	109	20	m	PSYC4802-20142	1.0	Block	exp	143	20140530.112614	diff	20	same	0	83
PRB	109	20	m	PSYC4802-20142	1.0	Block	exp	144	20140530.112616	diff	100	diff	1	1026
PRB	109	20	m	PSYC4802-20142	1.0	Block	exp	145	20140530.112619	same	60	diff	0	1
PRB	109	20	m	PSYC4802-20142	1.0	Block	exp	146	20140530.112621	same	20	diff	0	118
PRB	109	20	m	PSYC4802-20142	1.0	Block	exp	147	20140530.112623	same	60	diff	0	1
PRB	109	20	m	PSYC4802-20142	1.0	Block	exp	148	20140530.112625	same	20	diff	0	1
PRB	109	20	m	PSYC4802-20142	1.0	Block	exp	149	20140530.112627	diff	60	diff	1	25
PRB	109	20	m	PSYC4802-20142	1.0	Block	exp	150	20140530.112629	diff	100	diff	1	311
