Experimenter	Subject	Age	Sex	Experiment	Version	Block	TrialType	Trial	Timestamp	SameDiff	Rotation	Response	Acc	RT
JMJ	51	22	f	PSYC4802-20142	1.0	Block	practice	1	20140423.115058	same	60	88	-3	8737
JMJ	51	22	f	PSYC4802-20142	1.0	Block	practice	2	20140423.115109	same	20	same	1	7343
JMJ	51	22	f	PSYC4802-20142	1.0	Block	practice	3	20140423.115118	same	60	same	1	4724
JMJ	51	22	f	PSYC4802-20142	1.0	Block	practice	4	20140423.115125	diff	100	diff	1	4525
JMJ	51	22	f	PSYC4802-20142	1.0	Block	practice	5	20140423.115131	diff	60	diff	1	5398
JMJ	51	22	f	PSYC4802-20142	1.0	Block	practice	6	20140423.115139	same	100	same	1	5872
JMJ	51	22	f	PSYC4802-20142	1.0	Block	practice	7	20140423.115146	diff	60	same	0	6669
JMJ	51	22	f	PSYC4802-20142	1.0	Block	practice	8	20140423.115155	same	60	same	1	11163
JMJ	51	22	f	PSYC4802-20142	1.0	Block	practice	9	20140423.115208	same	20	same	1	7179
JMJ	51	22	f	PSYC4802-20142	1.0	Block	practice	10	20140423.115217	same	60	same	1	3880
JMJ	51	22	f	PSYC4802-20142	1.0	Block	practice	11	20140423.115223	diff	100	diff	1	6857
JMJ	51	22	f	PSYC4802-20142	1.0	Block	practice	12	20140423.115232	diff	60	diff	1	5573
JMJ	51	22	f	PSYC4802-20142	1.0	Block	practice	13	20140423.115240	same	60	diff	0	4513
JMJ	51	22	f	PSYC4802-20142	1.0	Block	practice	14	20140423.115246	diff	20	diff	1	6435
JMJ	51	22	f	PSYC4802-20142	1.0	Block	practice	15	20140423.115255	diff	100	same	0	5650
JMJ	51	22	f	PSYC4802-20142	1.0	Block	practice	16	20140423.115302	diff	20	same	0	5971
JMJ	51	22	f	PSYC4802-20142	1.0	Block	practice	17	20140423.115310	same	100	diff	0	6476
JMJ	51	22	f	PSYC4802-20142	1.0	Block	practice	18	20140423.115319	diff	20	diff	1	6469
JMJ	51	22	f	PSYC4802-20142	1.0	Block	practice	19	20140423.115327	diff	60	same	0	5334
JMJ	51	22	f	PSYC4802-20142	1.0	Block	practice	20	20140423.115334	same	100	same	1	3499
JMJ	51	22	f	PSYC4802-20142	1.0	Block	practice	21	20140423.115340	same	100	diff	0	4537
JMJ	51	22	f	PSYC4802-20142	1.0	Block	practice	22	20140423.115346	diff	20	same	0	5820
JMJ	51	22	f	PSYC4802-20142	1.0	Block	practice	23	20140423.115354	same	100	diff	0	5749
JMJ	51	22	f	PSYC4802-20142	1.0	Block	practice	24	20140423.115402	same	20	same	1	4232
JMJ	51	22	f	PSYC4802-20142	1.0	Block	practice	25	20140423.115408	diff	100	same	0	12774
JMJ	51	22	f	PSYC4802-20142	1.0	Block	practice	26	20140423.115423	diff	100	diff	1	21194
JMJ	51	22	f	PSYC4802-20142	1.0	Block	practice	27	20140423.115446	same	20	same	1	3862
JMJ	51	22	f	PSYC4802-20142	1.0	Block	practice	28	20140423.115452	same	20	same	1	3757
JMJ	51	22	f	PSYC4802-20142	1.0	Block	practice	29	20140423.115458	diff	20	diff	1	6932
JMJ	51	22	f	PSYC4802-20142	1.0	Block	practice	30	20140423.115507	diff	60	diff	1	5386
JMJ	51	22	f	PSYC4802-20142	1.0	Block	exp	31	20140423.115514	same	20	same	1	2603
JMJ	51	22	f	PSYC4802-20142	1.0	Block	exp	32	20140423.115519	diff	60	diff	1	10788
JMJ	51	22	f	PSYC4802-20142	1.0	Block	exp	33	20140423.115532	diff	100	diff	1	8421
JMJ	51	22	f	PSYC4802-20142	1.0	Block	exp	34	20140423.115542	same	20	same	1	3282
JMJ	51	22	f	PSYC4802-20142	1.0	Block	exp	35	20140423.115547	diff	60	diff	1	4588
JMJ	51	22	f	PSYC4802-20142	1.0	Block	exp	36	20140423.115554	same	20	same	1	3224
JMJ	51	22	f	PSYC4802-20142	1.0	Block	exp	37	20140423.115559	same	60	diff	0	5000
JMJ	51	22	f	PSYC4802-20142	1.0	Block	exp	38	20140423.115606	same	20	same	1	2949
JMJ	51	22	f	PSYC4802-20142	1.0	Block	exp	39	20140423.115611	same	20	same	1	3024
JMJ	51	22	f	PSYC4802-20142	1.0	Block	exp	40	20140423.115616	same	100	same	1	7665
JMJ	51	22	f	PSYC4802-20142	1.0	Block	exp	41	20140423.115626	diff	20	diff	1	9616
JMJ	51	22	f	PSYC4802-20142	1.0	Block	exp	42	20140423.115637	same	60	same	1	4308
JMJ	51	22	f	PSYC4802-20142	1.0	Block	exp	43	20140423.115644	same	100	same	1	8995
JMJ	51	22	f	PSYC4802-20142	1.0	Block	exp	44	20140423.115655	same	100	diff	0	7928
JMJ	51	22	f	PSYC4802-20142	1.0	Block	exp	45	20140423.115705	diff	100	diff	1	12206
JMJ	51	22	f	PSYC4802-20142	1.0	Block	exp	46	20140423.115719	same	20	same	1	3675
JMJ	51	22	f	PSYC4802-20142	1.0	Block	exp	47	20140423.115724	diff	60	diff	1	3183
JMJ	51	22	f	PSYC4802-20142	1.0	Block	exp	48	20140423.115730	same	20	same	1	3452
JMJ	51	22	f	PSYC4802-20142	1.0	Block	exp	49	20140423.115735	diff	20	same	0	4320
JMJ	51	22	f	PSYC4802-20142	1.0	Block	exp	50	20140423.115741	diff	100	diff	1	8022
JMJ	51	22	f	PSYC4802-20142	1.0	Block	exp	51	20140423.115757	diff	100	diff	1	12669
JMJ	51	22	f	PSYC4802-20142	1.0	Block	exp	52	20140423.115812	same	100	same	1	6581
JMJ	51	22	f	PSYC4802-20142	1.0	Block	exp	53	20140423.115820	diff	20	diff	1	7823
JMJ	51	22	f	PSYC4802-20142	1.0	Block	exp	54	20140423.115830	same	100	same	1	7366
JMJ	51	22	f	PSYC4802-20142	1.0	Block	exp	55	20140423.115840	same	60	same	1	4525
JMJ	51	22	f	PSYC4802-20142	1.0	Block	exp	56	20140423.115846	same	60	same	1	8146
JMJ	51	22	f	PSYC4802-20142	1.0	Block	exp	57	20140423.115856	same	20	same	1	3622
JMJ	51	22	f	PSYC4802-20142	1.0	Block	exp	58	20140423.115902	same	20	same	1	4783
JMJ	51	22	f	PSYC4802-20142	1.0	Block	exp	59	20140423.115909	diff	60	diff	1	8807
JMJ	51	22	f	PSYC4802-20142	1.0	Block	exp	60	20140423.115920	diff	20	diff	1	5591
JMJ	51	22	f	PSYC4802-20142	1.0	Block	exp	61	20140423.115927	diff	60	diff	1	6845
JMJ	51	22	f	PSYC4802-20142	1.0	Block	exp	62	20140423.115936	diff	100	diff	1	7260
JMJ	51	22	f	PSYC4802-20142	1.0	Block	exp	63	20140423.115945	same	100	diff	0	4888
JMJ	51	22	f	PSYC4802-20142	1.0	Block	exp	64	20140423.115952	diff	100	diff	1	6381
JMJ	51	22	f	PSYC4802-20142	1.0	Block	exp	65	20140423.120000	same	60	same	1	3095
JMJ	51	22	f	PSYC4802-20142	1.0	Block	exp	66	20140423.120006	diff	100	diff	1	4917
JMJ	51	22	f	PSYC4802-20142	1.0	Block	exp	67	20140423.120012	same	100	same	1	4782
JMJ	51	22	f	PSYC4802-20142	1.0	Block	exp	68	20140423.120019	same	100	same	1	10255
JMJ	51	22	f	PSYC4802-20142	1.0	Block	exp	69	20140423.120031	diff	100	diff	1	10178
JMJ	51	22	f	PSYC4802-20142	1.0	Block	exp	70	20140423.120044	same	60	same	1	3171
JMJ	51	22	f	PSYC4802-20142	1.0	Block	exp	71	20140423.120049	diff	60	diff	1	5246
JMJ	51	22	f	PSYC4802-20142	1.0	Block	exp	72	20140423.120056	same	60	same	1	6299
JMJ	51	22	f	PSYC4802-20142	1.0	Block	exp	73	20140423.120104	diff	60	diff	1	5128
JMJ	51	22	f	PSYC4802-20142	1.0	Block	exp	74	20140423.120111	same	60	same	1	5362
JMJ	51	22	f	PSYC4802-20142	1.0	Block	exp	75	20140423.120119	same	20	same	1	3183
JMJ	51	22	f	PSYC4802-20142	1.0	Block	exp	76	20140423.120124	diff	20	diff	1	9165
JMJ	51	22	f	PSYC4802-20142	1.0	Block	exp	77	20140423.120135	diff	60	same	0	4237
JMJ	51	22	f	PSYC4802-20142	1.0	Block	exp	78	20140423.120141	diff	60	same	0	6452
JMJ	51	22	f	PSYC4802-20142	1.0	Block	exp	79	20140423.120150	same	100	same	1	6798
JMJ	51	22	f	PSYC4802-20142	1.0	Block	exp	80	20140423.120159	diff	100	diff	1	7853
JMJ	51	22	f	PSYC4802-20142	1.0	Block	exp	81	20140423.120209	diff	100	diff	1	6557
JMJ	51	22	f	PSYC4802-20142	1.0	Block	exp	82	20140423.120217	diff	20	diff	1	4132
JMJ	51	22	f	PSYC4802-20142	1.0	Block	exp	83	20140423.120223	same	100	same	1	5386
JMJ	51	22	f	PSYC4802-20142	1.0	Block	exp	84	20140423.120231	same	100	same	1	5474
JMJ	51	22	f	PSYC4802-20142	1.0	Block	exp	85	20140423.120238	diff	20	diff	1	5580
JMJ	51	22	f	PSYC4802-20142	1.0	Block	exp	86	20140423.120246	diff	60	diff	1	5568
JMJ	51	22	f	PSYC4802-20142	1.0	Block	exp	87	20140423.120253	same	60	same	1	8304
JMJ	51	22	f	PSYC4802-20142	1.0	Block	exp	88	20140423.120304	same	20	same	1	2703
JMJ	51	22	f	PSYC4802-20142	1.0	Block	exp	89	20140423.120308	same	20	same	1	2796
JMJ	51	22	f	PSYC4802-20142	1.0	Block	exp	90	20140423.120313	diff	60	diff	1	3704
JMJ	51	22	f	PSYC4802-20142	1.0	Block	exp	91	20140423.120319	diff	100	diff	1	6253
JMJ	51	22	f	PSYC4802-20142	1.0	Block	exp	92	20140423.120327	diff	60	diff	1	3060
JMJ	51	22	f	PSYC4802-20142	1.0	Block	exp	93	20140423.120332	diff	20	diff	1	9734
JMJ	51	22	f	PSYC4802-20142	1.0	Block	exp	94	20140423.120344	same	100	same	1	8802
JMJ	51	22	f	PSYC4802-20142	1.0	Block	exp	95	20140423.120355	same	100	same	1	6341
JMJ	51	22	f	PSYC4802-20142	1.0	Block	exp	96	20140423.120403	diff	60	diff	1	6007
JMJ	51	22	f	PSYC4802-20142	1.0	Block	exp	97	20140423.120411	diff	60	diff	1	5462
JMJ	51	22	f	PSYC4802-20142	1.0	Block	exp	98	20140423.120418	same	60	same	1	3962
JMJ	51	22	f	PSYC4802-20142	1.0	Block	exp	99	20140423.120424	same	20	same	1	2737
JMJ	51	22	f	PSYC4802-20142	1.0	Block	exp	100	20140423.120429	same	100	diff	0	6487
JMJ	51	22	f	PSYC4802-20142	1.0	Block	exp	101	20140423.120506	diff	20	diff	1	5749
JMJ	51	22	f	PSYC4802-20142	1.0	Block	exp	102	20140423.120514	diff	20	diff	1	4255
JMJ	51	22	f	PSYC4802-20142	1.0	Block	exp	103	20140423.120520	diff	60	diff	1	7800
JMJ	51	22	f	PSYC4802-20142	1.0	Block	exp	104	20140423.120530	same	100	diff	0	6229
JMJ	51	22	f	PSYC4802-20142	1.0	Block	exp	105	20140423.120538	diff	20	diff	1	9230
JMJ	51	22	f	PSYC4802-20142	1.0	Block	exp	106	20140423.120549	diff	60	diff	1	6359
JMJ	51	22	f	PSYC4802-20142	1.0	Block	exp	107	20140423.120558	diff	20	diff	1	5567
JMJ	51	22	f	PSYC4802-20142	1.0	Block	exp	108	20140423.120605	diff	20	diff	1	6581
JMJ	51	22	f	PSYC4802-20142	1.0	Block	exp	109	20140423.120614	diff	20	diff	1	6001
JMJ	51	22	f	PSYC4802-20142	1.0	Block	exp	110	20140423.120622	same	100	same	1	5362
JMJ	51	22	f	PSYC4802-20142	1.0	Block	exp	111	20140423.120629	same	60	same	1	4149
JMJ	51	22	f	PSYC4802-20142	1.0	Block	exp	112	20140423.120635	same	60	same	1	4073
JMJ	51	22	f	PSYC4802-20142	1.0	Block	exp	113	20140423.120641	same	20	same	1	2808
JMJ	51	22	f	PSYC4802-20142	1.0	Block	exp	114	20140423.120646	same	100	same	1	9838
JMJ	51	22	f	PSYC4802-20142	1.0	Block	exp	115	20140423.120658	diff	100	diff	1	4185
JMJ	51	22	f	PSYC4802-20142	1.0	Block	exp	116	20140423.120704	diff	100	diff	1	4630
JMJ	51	22	f	PSYC4802-20142	1.0	Block	exp	117	20140423.120711	diff	100	diff	1	5444
JMJ	51	22	f	PSYC4802-20142	1.0	Block	exp	118	20140423.120718	same	60	diff	0	5445
JMJ	51	22	f	PSYC4802-20142	1.0	Block	exp	119	20140423.120725	diff	20	diff	1	7911
JMJ	51	22	f	PSYC4802-20142	1.0	Block	exp	120	20140423.120735	same	100	diff	0	6985
JMJ	51	22	f	PSYC4802-20142	1.0	Block	exp	121	20140423.120744	diff	20	diff	1	4548
JMJ	51	22	f	PSYC4802-20142	1.0	Block	exp	122	20140423.120751	same	20	same	1	2796
JMJ	51	22	f	PSYC4802-20142	1.0	Block	exp	123	20140423.120756	diff	60	diff	1	4332
JMJ	51	22	f	PSYC4802-20142	1.0	Block	exp	124	20140423.120802	same	60	diff	0	8163
JMJ	51	22	f	PSYC4802-20142	1.0	Block	exp	125	20140423.120812	same	60	same	1	4507
JMJ	51	22	f	PSYC4802-20142	1.0	Block	exp	126	20140423.120819	diff	20	diff	1	6956
JMJ	51	22	f	PSYC4802-20142	1.0	Block	exp	127	20140423.120828	same	60	same	1	6259
JMJ	51	22	f	PSYC4802-20142	1.0	Block	exp	128	20140423.120836	same	60	same	1	4167
JMJ	51	22	f	PSYC4802-20142	1.0	Block	exp	129	20140423.120842	same	100	same	1	5913
JMJ	51	22	f	PSYC4802-20142	1.0	Block	exp	130	20140423.120850	same	20	same	1	3288
JMJ	51	22	f	PSYC4802-20142	1.0	Block	exp	131	20140423.120855	diff	20	diff	1	7501
JMJ	51	22	f	PSYC4802-20142	1.0	Block	exp	132	20140423.120905	diff	100	diff	1	7876
JMJ	51	22	f	PSYC4802-20142	1.0	Block	exp	133	20140423.120915	diff	100	diff	1	6224
JMJ	51	22	f	PSYC4802-20142	1.0	Block	exp	134	20140423.120923	same	60	same	1	4003
JMJ	51	22	f	PSYC4802-20142	1.0	Block	exp	135	20140423.120929	diff	60	diff	1	3945
JMJ	51	22	f	PSYC4802-20142	1.0	Block	exp	136	20140423.120935	diff	60	same	0	7149
JMJ	51	22	f	PSYC4802-20142	1.0	Block	exp	137	20140423.120944	same	100	same	1	7900
JMJ	51	22	f	PSYC4802-20142	1.0	Block	exp	138	20140423.120954	same	20	same	1	4870
JMJ	51	22	f	PSYC4802-20142	1.0	Block	exp	139	20140423.121001	diff	20	diff	1	5996
JMJ	51	22	f	PSYC4802-20142	1.0	Block	exp	140	20140423.121009	same	20	same	1	2439
JMJ	51	22	f	PSYC4802-20142	1.0	Block	exp	141	20140423.121013	same	20	same	1	4155
JMJ	51	22	f	PSYC4802-20142	1.0	Block	exp	142	20140423.121020	diff	60	diff	1	5111
JMJ	51	22	f	PSYC4802-20142	1.0	Block	exp	143	20140423.121027	diff	100	diff	1	2960
JMJ	51	22	f	PSYC4802-20142	1.0	Block	exp	144	20140423.121032	diff	100	diff	1	4332
JMJ	51	22	f	PSYC4802-20142	1.0	Block	exp	145	20140423.121038	same	60	same	1	5983
JMJ	51	22	f	PSYC4802-20142	1.0	Block	exp	146	20140423.121046	diff	20	diff	1	5462
JMJ	51	22	f	PSYC4802-20142	1.0	Block	exp	147	20140423.121053	same	60	same	1	3804
JMJ	51	22	f	PSYC4802-20142	1.0	Block	exp	148	20140423.121059	diff	100	diff	1	3112
JMJ	51	22	f	PSYC4802-20142	1.0	Block	exp	149	20140423.121104	diff	100	diff	1	5427
JMJ	51	22	f	PSYC4802-20142	1.0	Block	exp	150	20140423.121112	same	20	same	1	2725
