Experimenter	Subject	Age	Sex	Experiment	Version	Block	TrialType	Trial	Timestamp	SameDiff	Rotation	Response	Acc	RT
JH	226	20	m	PSYC4802-20144	1.0	Block	practice	1	20141013.111531	same	60	same	1	7632
JH	226	20	m	PSYC4802-20144	1.0	Block	practice	2	20141013.111541	same	100	diff	0	2386
JH	226	20	m	PSYC4802-20144	1.0	Block	practice	3	20141013.111545	same	20	same	1	2151
JH	226	20	m	PSYC4802-20144	1.0	Block	practice	4	20141013.111550	same	20	same	1	1676
JH	226	20	m	PSYC4802-20144	1.0	Block	practice	5	20141013.111553	same	100	diff	0	1547
JH	226	20	m	PSYC4802-20144	1.0	Block	practice	6	20141013.111557	same	60	same	1	451
JH	226	20	m	PSYC4802-20144	1.0	Block	practice	7	20141013.111559	diff	60	same	0	1326
JH	226	20	m	PSYC4802-20144	1.0	Block	practice	8	20141013.111603	same	60	same	1	2467
JH	226	20	m	PSYC4802-20144	1.0	Block	practice	9	20141013.111607	diff	20	same	0	442
JH	226	20	m	PSYC4802-20144	1.0	Block	practice	10	20141013.111610	same	20	diff	0	1301
JH	226	20	m	PSYC4802-20144	1.0	Block	practice	11	20141013.111614	same	100	same	1	2041
JH	226	20	m	PSYC4802-20144	1.0	Block	practice	12	20141013.111618	diff	100	diff	1	3146
JH	226	20	m	PSYC4802-20144	1.0	Block	practice	13	20141013.111623	diff	20	same	0	556
JH	226	20	m	PSYC4802-20144	1.0	Block	practice	14	20141013.111626	diff	100	same	0	876
JH	226	20	m	PSYC4802-20144	1.0	Block	practice	15	20141013.111629	same	20	same	1	811
JH	226	20	m	PSYC4802-20144	1.0	Block	practice	16	20141013.111631	diff	20	diff	1	2931
JH	226	20	m	PSYC4802-20144	1.0	Block	practice	17	20141013.111636	diff	100	same	0	3556
JH	226	20	m	PSYC4802-20144	1.0	Block	practice	18	20141013.111642	same	60	same	1	1341
JH	226	20	m	PSYC4802-20144	1.0	Block	practice	19	20141013.111645	diff	100	diff	1	4486
JH	226	20	m	PSYC4802-20144	1.0	Block	practice	20	20141013.111652	diff	100	same	0	1556
JH	226	20	m	PSYC4802-20144	1.0	Block	practice	21	20141013.111656	diff	60	same	0	3231
JH	226	20	m	PSYC4802-20144	1.0	Block	practice	22	20141013.111701	diff	60	same	0	2756
JH	226	20	m	PSYC4802-20144	1.0	Block	practice	23	20141013.111706	same	60	same	1	1956
JH	226	20	m	PSYC4802-20144	1.0	Block	practice	24	20141013.111710	same	100	diff	0	1966
JH	226	20	m	PSYC4802-20144	1.0	Block	practice	25	20141013.111714	diff	60	diff	1	1991
JH	226	20	m	PSYC4802-20144	1.0	Block	practice	26	20141013.111718	diff	60	diff	1	1067
JH	226	20	m	PSYC4802-20144	1.0	Block	practice	27	20141013.111721	diff	20	diff	1	1801
JH	226	20	m	PSYC4802-20144	1.0	Block	practice	28	20141013.111725	diff	20	same	0	636
JH	226	20	m	PSYC4802-20144	1.0	Block	practice	29	20141013.111727	same	100	same	1	2931
JH	226	20	m	PSYC4802-20144	1.0	Block	practice	30	20141013.111732	same	20	same	1	1441
JH	226	20	m	PSYC4802-20144	1.0	Block	exp	31	20141013.111736	diff	100	diff	1	1831
JH	226	20	m	PSYC4802-20144	1.0	Block	exp	32	20141013.111740	diff	60	diff	1	1276
JH	226	20	m	PSYC4802-20144	1.0	Block	exp	33	20141013.111743	same	20	same	1	1221
JH	226	20	m	PSYC4802-20144	1.0	Block	exp	34	20141013.111746	diff	60	diff	1	1661
JH	226	20	m	PSYC4802-20144	1.0	Block	exp	35	20141013.111750	same	20	same	1	1626
JH	226	20	m	PSYC4802-20144	1.0	Block	exp	36	20141013.111754	same	20	same	1	1096
JH	226	20	m	PSYC4802-20144	1.0	Block	exp	37	20141013.111757	diff	100	diff	1	1706
JH	226	20	m	PSYC4802-20144	1.0	Block	exp	38	20141013.111800	same	100	same	1	1136
JH	226	20	m	PSYC4802-20144	1.0	Block	exp	39	20141013.111804	diff	20	same	0	1531
JH	226	20	m	PSYC4802-20144	1.0	Block	exp	40	20141013.111807	diff	20	diff	1	2022
JH	226	20	m	PSYC4802-20144	1.0	Block	exp	41	20141013.111811	same	20	same	1	1411
JH	226	20	m	PSYC4802-20144	1.0	Block	exp	42	20141013.111815	same	20	same	1	1971
JH	226	20	m	PSYC4802-20144	1.0	Block	exp	43	20141013.111819	diff	60	diff	1	2141
JH	226	20	m	PSYC4802-20144	1.0	Block	exp	44	20141013.111823	same	100	diff	0	6386
JH	226	20	m	PSYC4802-20144	1.0	Block	exp	45	20141013.111831	same	100	diff	0	2231
JH	226	20	m	PSYC4802-20144	1.0	Block	exp	46	20141013.111836	diff	100	diff	1	6456
JH	226	20	m	PSYC4802-20144	1.0	Block	exp	47	20141013.111844	diff	60	diff	1	2116
JH	226	20	m	PSYC4802-20144	1.0	Block	exp	48	20141013.111848	diff	20	diff	1	3131
JH	226	20	m	PSYC4802-20144	1.0	Block	exp	49	20141013.111853	same	60	diff	0	2726
JH	226	20	m	PSYC4802-20144	1.0	Block	exp	50	20141013.111858	same	100	diff	0	2946
JH	226	20	m	PSYC4802-20144	1.0	Block	exp	51	20141013.111911	same	100	diff	0	4912
JH	226	20	m	PSYC4802-20144	1.0	Block	exp	52	20141013.111918	diff	60	same	0	2066
JH	226	20	m	PSYC4802-20144	1.0	Block	exp	53	20141013.111922	diff	100	diff	1	1621
JH	226	20	m	PSYC4802-20144	1.0	Block	exp	54	20141013.111926	same	60	same	1	2446
JH	226	20	m	PSYC4802-20144	1.0	Block	exp	55	20141013.111930	same	20	same	1	2506
JH	226	20	m	PSYC4802-20144	1.0	Block	exp	56	20141013.111935	same	60	diff	0	1226
JH	226	20	m	PSYC4802-20144	1.0	Block	exp	57	20141013.111938	same	100	same	1	7031
JH	226	20	m	PSYC4802-20144	1.0	Block	exp	58	20141013.111947	diff	100	same	0	2457
JH	226	20	m	PSYC4802-20144	1.0	Block	exp	59	20141013.111952	diff	100	same	0	3836
JH	226	20	m	PSYC4802-20144	1.0	Block	exp	60	20141013.111958	diff	60	same	0	2806
JH	226	20	m	PSYC4802-20144	1.0	Block	exp	61	20141013.112003	same	60	same	1	4071
JH	226	20	m	PSYC4802-20144	1.0	Block	exp	62	20141013.112009	diff	100	same	0	2341
JH	226	20	m	PSYC4802-20144	1.0	Block	exp	63	20141013.112013	same	20	same	1	2271
JH	226	20	m	PSYC4802-20144	1.0	Block	exp	64	20141013.112018	same	100	same	1	3267
JH	226	20	m	PSYC4802-20144	1.0	Block	exp	65	20141013.112023	diff	100	same	0	3491
JH	226	20	m	PSYC4802-20144	1.0	Block	exp	66	20141013.112028	diff	60	diff	1	4517
JH	226	20	m	PSYC4802-20144	1.0	Block	exp	67	20141013.112035	same	60	same	1	3807
JH	226	20	m	PSYC4802-20144	1.0	Block	exp	68	20141013.112041	diff	20	diff	1	3036
JH	226	20	m	PSYC4802-20144	1.0	Block	exp	69	20141013.112046	diff	100	diff	1	2701
JH	226	20	m	PSYC4802-20144	1.0	Block	exp	70	20141013.112051	diff	60	same	0	601
JH	226	20	m	PSYC4802-20144	1.0	Block	exp	71	20141013.112053	same	20	diff	0	1267
JH	226	20	m	PSYC4802-20144	1.0	Block	exp	72	20141013.112057	diff	100	diff	1	7597
JH	226	20	m	PSYC4802-20144	1.0	Block	exp	73	20141013.112106	diff	20	same	0	3841
JH	226	20	m	PSYC4802-20144	1.0	Block	exp	74	20141013.112112	diff	20	diff	1	1526
JH	226	20	m	PSYC4802-20144	1.0	Block	exp	75	20141013.112116	diff	60	diff	1	1841
JH	226	20	m	PSYC4802-20144	1.0	Block	exp	76	20141013.112119	diff	20	same	0	3112
JH	226	20	m	PSYC4802-20144	1.0	Block	exp	77	20141013.112125	same	60	same	1	5946
JH	226	20	m	PSYC4802-20144	1.0	Block	exp	78	20141013.112133	diff	100	same	0	1651
JH	226	20	m	PSYC4802-20144	1.0	Block	exp	79	20141013.112136	diff	100	diff	1	1471
JH	226	20	m	PSYC4802-20144	1.0	Block	exp	80	20141013.112140	diff	20	diff	1	1486
JH	226	20	m	PSYC4802-20144	1.0	Block	exp	81	20141013.112143	same	100	same	1	9652
JH	226	20	m	PSYC4802-20144	1.0	Block	exp	82	20141013.112155	same	60	same	1	1386
JH	226	20	m	PSYC4802-20144	1.0	Block	exp	83	20141013.112158	same	100	same	1	4491
JH	226	20	m	PSYC4802-20144	1.0	Block	exp	84	20141013.112205	same	60	same	1	1431
JH	226	20	m	PSYC4802-20144	1.0	Block	exp	85	20141013.112209	same	20	same	1	3886
JH	226	20	m	PSYC4802-20144	1.0	Block	exp	86	20141013.112214	same	100	same	1	4536
JH	226	20	m	PSYC4802-20144	1.0	Block	exp	87	20141013.112221	diff	20	diff	1	1812
JH	226	20	m	PSYC4802-20144	1.0	Block	exp	88	20141013.112225	same	20	same	1	1556
JH	226	20	m	PSYC4802-20144	1.0	Block	exp	89	20141013.112228	same	100	same	1	2686
JH	226	20	m	PSYC4802-20144	1.0	Block	exp	90	20141013.112233	diff	20	diff	1	1331
JH	226	20	m	PSYC4802-20144	1.0	Block	exp	91	20141013.112237	same	20	same	1	3086
JH	226	20	m	PSYC4802-20144	1.0	Block	exp	92	20141013.112242	diff	100	diff	1	3931
JH	226	20	m	PSYC4802-20144	1.0	Block	exp	93	20141013.112248	same	100	diff	0	2551
JH	226	20	m	PSYC4802-20144	1.0	Block	exp	94	20141013.112252	diff	100	diff	1	6121
JH	226	20	m	PSYC4802-20144	1.0	Block	exp	95	20141013.112300	same	60	same	1	2676
JH	226	20	m	PSYC4802-20144	1.0	Block	exp	96	20141013.112305	same	20	same	1	2371
JH	226	20	m	PSYC4802-20144	1.0	Block	exp	97	20141013.112310	same	60	same	1	3356
JH	226	20	m	PSYC4802-20144	1.0	Block	exp	98	20141013.112315	diff	20	diff	1	1891
JH	226	20	m	PSYC4802-20144	1.0	Block	exp	99	20141013.112319	same	60	same	1	2981
JH	226	20	m	PSYC4802-20144	1.0	Block	exp	100	20141013.112324	diff	20	diff	1	1801
JH	226	20	m	PSYC4802-20144	1.0	Block	exp	101	20141013.112329	same	60	same	1	2036
JH	226	20	m	PSYC4802-20144	1.0	Block	exp	102	20141013.112334	same	20	same	1	2996
JH	226	20	m	PSYC4802-20144	1.0	Block	exp	103	20141013.112339	same	20	same	1	1461
JH	226	20	m	PSYC4802-20144	1.0	Block	exp	104	20141013.112342	diff	60	same	0	2611
JH	226	20	m	PSYC4802-20144	1.0	Block	exp	105	20141013.112347	same	60	same	1	5431
JH	226	20	m	PSYC4802-20144	1.0	Block	exp	106	20141013.112354	same	60	same	1	3081
JH	226	20	m	PSYC4802-20144	1.0	Block	exp	107	20141013.112359	same	60	same	1	1311
JH	226	20	m	PSYC4802-20144	1.0	Block	exp	108	20141013.112403	same	60	same	1	1836
JH	226	20	m	PSYC4802-20144	1.0	Block	exp	109	20141013.112407	diff	20	diff	1	2786
JH	226	20	m	PSYC4802-20144	1.0	Block	exp	110	20141013.112412	diff	20	diff	1	2561
JH	226	20	m	PSYC4802-20144	1.0	Block	exp	111	20141013.112416	same	20	same	1	3286
JH	226	20	m	PSYC4802-20144	1.0	Block	exp	112	20141013.112422	diff	20	diff	1	2496
JH	226	20	m	PSYC4802-20144	1.0	Block	exp	113	20141013.112426	diff	60	diff	1	2466
JH	226	20	m	PSYC4802-20144	1.0	Block	exp	114	20141013.112431	diff	60	diff	1	3061
JH	226	20	m	PSYC4802-20144	1.0	Block	exp	115	20141013.112436	diff	60	diff	1	2137
JH	226	20	m	PSYC4802-20144	1.0	Block	exp	116	20141013.112440	diff	20	same	0	6467
JH	226	20	m	PSYC4802-20144	1.0	Block	exp	117	20141013.112448	diff	60	diff	1	3051
JH	226	20	m	PSYC4802-20144	1.0	Block	exp	118	20141013.112453	diff	20	diff	1	1031
JH	226	20	m	PSYC4802-20144	1.0	Block	exp	119	20141013.112457	same	100	diff	0	1072
JH	226	20	m	PSYC4802-20144	1.0	Block	exp	120	20141013.112500	diff	60	diff	1	1191
JH	226	20	m	PSYC4802-20144	1.0	Block	exp	121	20141013.112503	same	100	same	1	1911
JH	226	20	m	PSYC4802-20144	1.0	Block	exp	122	20141013.112507	same	100	diff	0	1011
JH	226	20	m	PSYC4802-20144	1.0	Block	exp	123	20141013.112510	same	100	same	1	1341
JH	226	20	m	PSYC4802-20144	1.0	Block	exp	124	20141013.112513	same	20	same	1	1126
JH	226	20	m	PSYC4802-20144	1.0	Block	exp	125	20141013.112516	diff	100	diff	1	2081
JH	226	20	m	PSYC4802-20144	1.0	Block	exp	126	20141013.112521	same	20	same	1	1886
JH	226	20	m	PSYC4802-20144	1.0	Block	exp	127	20141013.112524	diff	60	same	0	1471
JH	226	20	m	PSYC4802-20144	1.0	Block	exp	128	20141013.112528	same	60	same	1	1816
JH	226	20	m	PSYC4802-20144	1.0	Block	exp	129	20141013.112532	diff	100	same	0	1406
JH	226	20	m	PSYC4802-20144	1.0	Block	exp	130	20141013.112535	diff	20	diff	1	1201
JH	226	20	m	PSYC4802-20144	1.0	Block	exp	131	20141013.112539	same	20	same	1	1691
JH	226	20	m	PSYC4802-20144	1.0	Block	exp	132	20141013.112542	same	20	same	1	1216
JH	226	20	m	PSYC4802-20144	1.0	Block	exp	133	20141013.112546	same	60	same	1	1201
JH	226	20	m	PSYC4802-20144	1.0	Block	exp	134	20141013.112549	diff	100	diff	1	1246
JH	226	20	m	PSYC4802-20144	1.0	Block	exp	135	20141013.112552	diff	20	diff	1	1806
JH	226	20	m	PSYC4802-20144	1.0	Block	exp	136	20141013.112556	diff	60	diff	1	4532
JH	226	20	m	PSYC4802-20144	1.0	Block	exp	137	20141013.112602	diff	100	diff	1	2361
JH	226	20	m	PSYC4802-20144	1.0	Block	exp	138	20141013.112607	same	100	same	1	1756
JH	226	20	m	PSYC4802-20144	1.0	Block	exp	139	20141013.112611	same	60	same	1	4406
JH	226	20	m	PSYC4802-20144	1.0	Block	exp	140	20141013.112617	same	60	same	1	3386
JH	226	20	m	PSYC4802-20144	1.0	Block	exp	141	20141013.112622	same	100	same	1	1616
JH	226	20	m	PSYC4802-20144	1.0	Block	exp	142	20141013.112626	diff	60	diff	1	2270
JH	226	20	m	PSYC4802-20144	1.0	Block	exp	143	20141013.112630	diff	100	diff	1	3722
JH	226	20	m	PSYC4802-20144	1.0	Block	exp	144	20141013.112636	same	20	same	1	3721
JH	226	20	m	PSYC4802-20144	1.0	Block	exp	145	20141013.112642	same	100	same	1	3216
JH	226	20	m	PSYC4802-20144	1.0	Block	exp	146	20141013.112647	diff	60	diff	1	1951
JH	226	20	m	PSYC4802-20144	1.0	Block	exp	147	20141013.112651	diff	20	diff	1	1721
JH	226	20	m	PSYC4802-20144	1.0	Block	exp	148	20141013.112655	same	100	same	1	1721
JH	226	20	m	PSYC4802-20144	1.0	Block	exp	149	20141013.112659	diff	100	same	0	2282
JH	226	20	m	PSYC4802-20144	1.0	Block	exp	150	20141013.112703	diff	60	same	0	3947
