Experimenter	Subject	Age	Sex	Experiment	Version	Block	TrialType	Trial	Timestamp	SameDiff	Rotation	Response	Acc	RT
CMW	210	24	f	PSYC4802-20144	1.0	Block	practice	1	20140929.110849	diff	20	diff	1	8437
CMW	210	24	f	PSYC4802-20144	1.0	Block	practice	2	20140929.110900	same	60	same	1	12222
CMW	210	24	f	PSYC4802-20144	1.0	Block	practice	3	20140929.110914	diff	100	diff	1	10107
CMW	210	24	f	PSYC4802-20144	1.0	Block	practice	4	20140929.110926	same	60	diff	0	7511
CMW	210	24	f	PSYC4802-20144	1.0	Block	practice	5	20140929.110936	same	20	same	1	6209
CMW	210	24	f	PSYC4802-20144	1.0	Block	practice	6	20140929.110944	diff	20	diff	1	7767
CMW	210	24	f	PSYC4802-20144	1.0	Block	practice	7	20140929.110954	same	20	same	1	4296
CMW	210	24	f	PSYC4802-20144	1.0	Block	practice	8	20140929.111000	same	100	diff	0	4495
CMW	210	24	f	PSYC4802-20144	1.0	Block	practice	9	20140929.111007	same	20	same	1	5453
CMW	210	24	f	PSYC4802-20144	1.0	Block	practice	10	20140929.111014	diff	20	diff	1	3336
CMW	210	24	f	PSYC4802-20144	1.0	Block	practice	11	20140929.111019	same	100	same	1	5011
CMW	210	24	f	PSYC4802-20144	1.0	Block	practice	12	20140929.111027	same	100	same	1	4331
CMW	210	24	f	PSYC4802-20144	1.0	Block	practice	13	20140929.111033	same	60	same	1	4137
CMW	210	24	f	PSYC4802-20144	1.0	Block	practice	14	20140929.111039	diff	60	diff	1	3916
CMW	210	24	f	PSYC4802-20144	1.0	Block	practice	15	20140929.111045	diff	100	diff	1	3626
CMW	210	24	f	PSYC4802-20144	1.0	Block	practice	16	20140929.111051	diff	100	diff	1	6026
CMW	210	24	f	PSYC4802-20144	1.0	Block	practice	17	20140929.111059	same	20	same	1	2766
CMW	210	24	f	PSYC4802-20144	1.0	Block	practice	18	20140929.111104	same	60	same	1	3596
CMW	210	24	f	PSYC4802-20144	1.0	Block	practice	19	20140929.111109	same	60	same	1	5526
CMW	210	24	f	PSYC4802-20144	1.0	Block	practice	20	20140929.111117	diff	60	diff	1	2797
CMW	210	24	f	PSYC4802-20144	1.0	Block	practice	21	20140929.111122	same	20	same	1	2606
CMW	210	24	f	PSYC4802-20144	1.0	Block	practice	22	20140929.111126	diff	20	diff	1	6116
CMW	210	24	f	PSYC4802-20144	1.0	Block	practice	23	20140929.111135	diff	100	diff	1	3462
CMW	210	24	f	PSYC4802-20144	1.0	Block	practice	24	20140929.111140	same	100	same	1	2356
CMW	210	24	f	PSYC4802-20144	1.0	Block	practice	25	20140929.111145	diff	60	diff	1	1946
CMW	210	24	f	PSYC4802-20144	1.0	Block	practice	26	20140929.111149	diff	60	diff	1	5546
CMW	210	24	f	PSYC4802-20144	1.0	Block	practice	27	20140929.111156	diff	100	diff	1	4267
CMW	210	24	f	PSYC4802-20144	1.0	Block	practice	28	20140929.111202	diff	60	diff	1	2287
CMW	210	24	f	PSYC4802-20144	1.0	Block	practice	29	20140929.111207	diff	20	diff	1	2561
CMW	210	24	f	PSYC4802-20144	1.0	Block	practice	30	20140929.111211	same	100	same	1	2911
CMW	210	24	f	PSYC4802-20144	1.0	Block	exp	31	20140929.111216	diff	20	diff	1	1566
CMW	210	24	f	PSYC4802-20144	1.0	Block	exp	32	20140929.111220	same	100	same	1	2682
CMW	210	24	f	PSYC4802-20144	1.0	Block	exp	33	20140929.111225	diff	100	diff	1	3836
CMW	210	24	f	PSYC4802-20144	1.0	Block	exp	34	20140929.111231	same	20	same	1	2927
CMW	210	24	f	PSYC4802-20144	1.0	Block	exp	35	20140929.111236	diff	100	diff	1	1711
CMW	210	24	f	PSYC4802-20144	1.0	Block	exp	36	20140929.111239	diff	20	diff	1	1746
CMW	210	24	f	PSYC4802-20144	1.0	Block	exp	37	20140929.111243	same	20	same	1	2691
CMW	210	24	f	PSYC4802-20144	1.0	Block	exp	38	20140929.111248	same	60	same	1	4231
CMW	210	24	f	PSYC4802-20144	1.0	Block	exp	39	20140929.111254	diff	100	diff	1	1656
CMW	210	24	f	PSYC4802-20144	1.0	Block	exp	40	20140929.111258	same	20	same	1	2516
CMW	210	24	f	PSYC4802-20144	1.0	Block	exp	41	20140929.111302	diff	60	diff	1	1206
CMW	210	24	f	PSYC4802-20144	1.0	Block	exp	42	20140929.111306	diff	20	diff	1	1146
CMW	210	24	f	PSYC4802-20144	1.0	Block	exp	43	20140929.111309	same	60	same	1	2342
CMW	210	24	f	PSYC4802-20144	1.0	Block	exp	44	20140929.111313	same	60	same	1	2711
CMW	210	24	f	PSYC4802-20144	1.0	Block	exp	45	20140929.111318	same	100	same	1	3901
CMW	210	24	f	PSYC4802-20144	1.0	Block	exp	46	20140929.111324	diff	60	same	0	3021
CMW	210	24	f	PSYC4802-20144	1.0	Block	exp	47	20140929.111329	same	60	same	1	4652
CMW	210	24	f	PSYC4802-20144	1.0	Block	exp	48	20140929.111336	same	100	same	1	3081
CMW	210	24	f	PSYC4802-20144	1.0	Block	exp	49	20140929.111341	diff	100	diff	1	3422
CMW	210	24	f	PSYC4802-20144	1.0	Block	exp	50	20140929.111346	same	100	same	1	5456
CMW	210	24	f	PSYC4802-20144	1.0	Block	exp	51	20140929.111358	diff	20	same	0	10007
CMW	210	24	f	PSYC4802-20144	1.0	Block	exp	52	20140929.111410	diff	60	8	-3	3786
CMW	210	24	F	PSYC4802-20144	1.0	Block	exp	1	20140929.111702	same	100	same	1	6011
CMW	210	24	F	PSYC4802-20144	1.0	Block	exp	2	20140929.111710	same	100	same	1	2596
CMW	210	24	F	PSYC4802-20144	1.0	Block	exp	3	20140929.111715	same	20	same	1	2491
CMW	210	24	F	PSYC4802-20144	1.0	Block	exp	4	20140929.111719	same	20	same	1	2621
CMW	210	24	F	PSYC4802-20144	1.0	Block	exp	5	20140929.111724	same	100	diff	0	1681
CMW	210	24	F	PSYC4802-20144	1.0	Block	exp	6	20140929.111728	diff	60	diff	1	3616
CMW	210	24	F	PSYC4802-20144	1.0	Block	exp	7	20140929.111733	same	60	same	1	3286
CMW	210	24	F	PSYC4802-20144	1.0	Block	exp	8	20140929.111738	diff	20	diff	1	5652
CMW	210	24	F	PSYC4802-20144	1.0	Block	exp	9	20140929.111746	diff	60	diff	1	1511
CMW	210	24	F	PSYC4802-20144	1.0	Block	exp	10	20140929.111750	diff	60	diff	1	2521
CMW	210	24	F	PSYC4802-20144	1.0	Block	exp	11	20140929.111754	same	20	same	1	2227
CMW	210	24	F	PSYC4802-20144	1.0	Block	exp	12	20140929.111758	same	20	same	1	2617
CMW	210	24	F	PSYC4802-20144	1.0	Block	exp	13	20140929.111803	diff	60	diff	1	4946
CMW	210	24	F	PSYC4802-20144	1.0	Block	exp	14	20140929.111810	diff	20	diff	1	5242
CMW	210	24	F	PSYC4802-20144	1.0	Block	exp	15	20140929.111817	same	100	same	1	3571
CMW	210	24	F	PSYC4802-20144	1.0	Block	exp	16	20140929.111823	same	20	same	1	1726
CMW	210	24	F	PSYC4802-20144	1.0	Block	exp	17	20140929.111827	same	20	same	1	2536
CMW	210	24	F	PSYC4802-20144	1.0	Block	exp	18	20140929.111831	same	60	same	1	4231
CMW	210	24	F	PSYC4802-20144	1.0	Block	exp	19	20140929.111838	same	100	same	1	3001
CMW	210	24	F	PSYC4802-20144	1.0	Block	exp	20	20140929.111843	same	100	diff	0	6087
CMW	210	24	F	PSYC4802-20144	1.0	Block	exp	21	20140929.111851	diff	60	diff	1	3321
CMW	210	24	F	PSYC4802-20144	1.0	Block	exp	22	20140929.111856	diff	20	same	0	2011
CMW	210	24	F	PSYC4802-20144	1.0	Block	exp	23	20140929.111900	diff	20	diff	1	3296
CMW	210	24	F	PSYC4802-20144	1.0	Block	exp	24	20140929.111906	same	100	same	1	8337
CMW	210	24	F	PSYC4802-20144	1.0	Block	exp	25	20140929.111916	diff	100	diff	1	3411
CMW	210	24	F	PSYC4802-20144	1.0	Block	exp	26	20140929.111921	diff	100	diff	1	4697
CMW	210	24	F	PSYC4802-20144	1.0	Block	exp	27	20140929.111928	same	60	same	1	2871
CMW	210	24	F	PSYC4802-20144	1.0	Block	exp	28	20140929.111933	diff	100	diff	1	2401
CMW	210	24	F	PSYC4802-20144	1.0	Block	exp	29	20140929.111938	diff	20	diff	1	2806
CMW	210	24	F	PSYC4802-20144	1.0	Block	exp	30	20140929.111942	same	60	same	1	4386
CMW	210	24	F	PSYC4802-20144	1.0	Block	exp	31	20140929.111949	diff	60	diff	1	2701
CMW	210	24	F	PSYC4802-20144	1.0	Block	exp	32	20140929.111953	same	60	same	1	2026
CMW	210	24	F	PSYC4802-20144	1.0	Block	exp	33	20140929.111958	same	20	same	1	2041
CMW	210	24	F	PSYC4802-20144	1.0	Block	exp	34	20140929.112002	same	60	same	1	3166
CMW	210	24	F	PSYC4802-20144	1.0	Block	exp	35	20140929.112007	same	100	same	1	2466
CMW	210	24	F	PSYC4802-20144	1.0	Block	exp	36	20140929.112011	same	20	same	1	2161
CMW	210	24	F	PSYC4802-20144	1.0	Block	exp	37	20140929.112016	diff	20	diff	1	1531
CMW	210	24	F	PSYC4802-20144	1.0	Block	exp	38	20140929.112019	same	100	same	1	2917
CMW	210	24	F	PSYC4802-20144	1.0	Block	exp	39	20140929.112024	diff	20	diff	1	3611
CMW	210	24	F	PSYC4802-20144	1.0	Block	exp	40	20140929.112030	same	60	same	1	2051
CMW	210	24	F	PSYC4802-20144	1.0	Block	exp	41	20140929.112034	diff	20	diff	1	2136
CMW	210	24	F	PSYC4802-20144	1.0	Block	exp	42	20140929.112038	same	60	same	1	2281
CMW	210	24	F	PSYC4802-20144	1.0	Block	exp	43	20140929.112042	diff	20	diff	1	1912
CMW	210	24	F	PSYC4802-20144	1.0	Block	exp	44	20140929.112046	diff	100	diff	1	2116
CMW	210	24	F	PSYC4802-20144	1.0	Block	exp	45	20140929.112050	same	60	same	1	2167
CMW	210	24	F	PSYC4802-20144	1.0	Block	exp	46	20140929.112054	same	60	same	1	4326
CMW	210	24	F	PSYC4802-20144	1.0	Block	exp	47	20140929.112101	diff	60	diff	1	1436
CMW	210	24	F	PSYC4802-20144	1.0	Block	exp	48	20140929.112104	same	60	same	1	2606
CMW	210	24	F	PSYC4802-20144	1.0	Block	exp	49	20140929.112109	diff	60	diff	1	2266
CMW	210	24	F	PSYC4802-20144	1.0	Block	exp	50	20140929.112113	same	100	same	1	3431
CMW	210	24	F	PSYC4802-20144	1.0	Block	exp	51	20140929.112129	same	100	same	1	4446
CMW	210	24	F	PSYC4802-20144	1.0	Block	exp	52	20140929.112135	diff	20	same	0	4401
CMW	210	24	F	PSYC4802-20144	1.0	Block	exp	53	20140929.112142	diff	100	diff	1	6291
CMW	210	24	F	PSYC4802-20144	1.0	Block	exp	54	20140929.112150	same	20	same	1	1851
CMW	210	24	F	PSYC4802-20144	1.0	Block	exp	55	20140929.112154	diff	100	diff	1	1381
CMW	210	24	F	PSYC4802-20144	1.0	Block	exp	56	20140929.112157	same	100	same	1	5181
CMW	210	24	F	PSYC4802-20144	1.0	Block	exp	57	20140929.112205	diff	20	diff	1	4896
CMW	210	24	F	PSYC4802-20144	1.0	Block	exp	58	20140929.112211	diff	100	same	0	1716
CMW	210	24	F	PSYC4802-20144	1.0	Block	exp	59	20140929.112215	diff	100	diff	1	3871
CMW	210	24	F	PSYC4802-20144	1.0	Block	exp	60	20140929.112221	diff	20	diff	1	1296
CMW	210	24	F	PSYC4802-20144	1.0	Block	exp	61	20140929.112225	diff	20	diff	1	2757
CMW	210	24	F	PSYC4802-20144	1.0	Block	exp	62	20140929.112229	same	60	same	1	1747
CMW	210	24	F	PSYC4802-20144	1.0	Block	exp	63	20140929.112233	diff	20	diff	1	8978
CMW	210	24	F	PSYC4802-20144	1.0	Block	exp	64	20140929.112244	same	100	same	1	2631
CMW	210	24	F	PSYC4802-20144	1.0	Block	exp	65	20140929.112249	same	60	same	1	2437
CMW	210	24	F	PSYC4802-20144	1.0	Block	exp	66	20140929.112253	same	60	same	1	3131
CMW	210	24	F	PSYC4802-20144	1.0	Block	exp	67	20140929.112258	diff	60	same	0	2841
CMW	210	24	F	PSYC4802-20144	1.0	Block	exp	68	20140929.112303	diff	100	diff	1	1676
CMW	210	24	F	PSYC4802-20144	1.0	Block	exp	69	20140929.112307	diff	20	same	0	2396
CMW	210	24	F	PSYC4802-20144	1.0	Block	exp	70	20140929.112313	diff	100	diff	1	2297
CMW	210	24	F	PSYC4802-20144	1.0	Block	exp	71	20140929.112317	diff	100	diff	1	1811
CMW	210	24	F	PSYC4802-20144	1.0	Block	exp	72	20140929.112321	diff	60	diff	1	3356
CMW	210	24	F	PSYC4802-20144	1.0	Block	exp	73	20140929.112326	same	100	same	1	3261
CMW	210	24	F	PSYC4802-20144	1.0	Block	exp	74	20140929.112332	diff	100	diff	1	2037
CMW	210	24	F	PSYC4802-20144	1.0	Block	exp	75	20140929.112336	same	60	same	1	2406
CMW	210	24	F	PSYC4802-20144	1.0	Block	exp	76	20140929.112340	diff	60	same	0	1731
CMW	210	24	F	PSYC4802-20144	1.0	Block	exp	77	20140929.112345	diff	100	diff	1	3611
CMW	210	24	F	PSYC4802-20144	1.0	Block	exp	78	20140929.112351	same	60	diff	0	3251
CMW	210	24	F	PSYC4802-20144	1.0	Block	exp	79	20140929.112356	same	20	same	1	2351
CMW	210	24	F	PSYC4802-20144	1.0	Block	exp	80	20140929.112401	diff	60	diff	1	2262
CMW	210	24	F	PSYC4802-20144	1.0	Block	exp	81	20140929.112405	same	100	same	1	3726
CMW	210	24	F	PSYC4802-20144	1.0	Block	exp	82	20140929.112411	same	20	same	1	1667
CMW	210	24	F	PSYC4802-20144	1.0	Block	exp	83	20140929.112414	diff	100	same	0	3271
CMW	210	24	F	PSYC4802-20144	1.0	Block	exp	84	20140929.112421	diff	60	diff	1	2582
CMW	210	24	F	PSYC4802-20144	1.0	Block	exp	85	20140929.112426	diff	100	diff	1	2381
CMW	210	24	F	PSYC4802-20144	1.0	Block	exp	86	20140929.112430	diff	60	diff	1	1962
CMW	210	24	F	PSYC4802-20144	1.0	Block	exp	87	20140929.112434	diff	60	same	0	4731
CMW	210	24	F	PSYC4802-20144	1.0	Block	exp	88	20140929.112441	same	100	same	1	3297
CMW	210	24	F	PSYC4802-20144	1.0	Block	exp	89	20140929.112446	same	20	same	1	2036
CMW	210	24	F	PSYC4802-20144	1.0	Block	exp	90	20140929.112450	diff	60	diff	1	2181
CMW	210	24	F	PSYC4802-20144	1.0	Block	exp	91	20140929.112455	diff	60	same	0	4676
CMW	210	24	F	PSYC4802-20144	1.0	Block	exp	92	20140929.112501	same	20	same	1	2036
CMW	210	24	F	PSYC4802-20144	1.0	Block	exp	93	20140929.112505	diff	20	diff	1	1316
CMW	210	24	F	PSYC4802-20144	1.0	Block	exp	94	20140929.112509	same	20	same	1	1951
CMW	210	24	F	PSYC4802-20144	1.0	Block	exp	95	20140929.112513	diff	100	diff	1	3856
CMW	210	24	F	PSYC4802-20144	1.0	Block	exp	96	20140929.112519	same	20	same	1	2166
CMW	210	24	F	PSYC4802-20144	1.0	Block	exp	97	20140929.112523	same	20	same	1	3926
CMW	210	24	F	PSYC4802-20144	1.0	Block	exp	98	20140929.112529	same	60	same	1	4511
CMW	210	24	F	PSYC4802-20144	1.0	Block	exp	99	20140929.112535	same	100	same	1	2156
CMW	210	24	F	PSYC4802-20144	1.0	Block	exp	100	20140929.112539	same	20	same	1	1741
