Experimenter	Subject	Age	Sex	Experiment	Version	Block	TrialType	Trial	Timestamp	SameDiff	Rotation	Response	Acc	RT
MB	233	27	M	PSYC4802-20144	1.0	Block	practice	1	20141013.120449	same	60	same	1	1117
MB	233	27	M	PSYC4802-20144	1.0	Block	practice	2	20141013.120452	diff	20	diff	1	436
MB	233	27	M	PSYC4802-20144	1.0	Block	practice	3	20141013.120454	diff	20	diff	1	861
MB	233	27	M	PSYC4802-20144	1.0	Block	practice	4	20141013.120457	diff	100	same	0	1576
MB	233	27	M	PSYC4802-20144	1.0	Block	practice	5	20141013.120501	diff	60	same	0	1966
MB	233	27	M	PSYC4802-20144	1.0	Block	practice	6	20141013.120505	same	60	same	1	2116
MB	233	27	M	PSYC4802-20144	1.0	Block	practice	7	20141013.120509	diff	100	diff	1	1792
MB	233	27	M	PSYC4802-20144	1.0	Block	practice	8	20141013.120513	diff	100	diff	1	1641
MB	233	27	M	PSYC4802-20144	1.0	Block	practice	9	20141013.120516	same	60	diff	0	1711
MB	233	27	M	PSYC4802-20144	1.0	Block	practice	10	20141013.120520	diff	20	same	0	1422
MB	233	27	M	PSYC4802-20144	1.0	Block	practice	11	20141013.120524	diff	100	same	0	906
MB	233	27	M	PSYC4802-20144	1.0	Block	practice	12	20141013.120527	same	100	same	1	2172
MB	233	27	M	PSYC4802-20144	1.0	Block	practice	13	20141013.120531	same	100	diff	0	626
MB	233	27	M	PSYC4802-20144	1.0	Block	practice	14	20141013.120534	same	60	diff	0	1991
MB	233	27	M	PSYC4802-20144	1.0	Block	practice	15	20141013.120538	same	60	diff	0	1262
MB	233	27	M	PSYC4802-20144	1.0	Block	practice	16	20141013.120541	same	20	same	1	1627
MB	233	27	M	PSYC4802-20144	1.0	Block	practice	17	20141013.120545	diff	60	diff	1	1737
MB	233	27	M	PSYC4802-20144	1.0	Block	practice	18	20141013.120548	diff	20	same	0	2891
MB	233	27	M	PSYC4802-20144	1.0	Block	practice	19	20141013.120553	same	20	same	1	1771
MB	233	27	M	PSYC4802-20144	1.0	Block	practice	20	20141013.120557	diff	20	same	0	2931
MB	233	27	M	PSYC4802-20144	1.0	Block	practice	21	20141013.120602	same	100	same	1	1201
MB	233	27	M	PSYC4802-20144	1.0	Block	practice	22	20141013.120605	diff	100	same	0	1496
MB	233	27	M	PSYC4802-20144	1.0	Block	practice	23	20141013.120609	diff	60	diff	1	2051
MB	233	27	M	PSYC4802-20144	1.0	Block	practice	24	20141013.120613	diff	60	same	0	1701
MB	233	27	M	PSYC4802-20144	1.0	Block	practice	25	20141013.120617	same	100	same	1	1731
MB	233	27	M	PSYC4802-20144	1.0	Block	practice	26	20141013.120621	diff	60	same	0	1536
MB	233	27	M	PSYC4802-20144	1.0	Block	practice	27	20141013.120624	same	20	same	1	1522
MB	233	27	M	PSYC4802-20144	1.0	Block	practice	28	20141013.120628	same	20	same	1	1381
MB	233	27	M	PSYC4802-20144	1.0	Block	practice	29	20141013.120631	same	20	same	1	1661
MB	233	27	M	PSYC4802-20144	1.0	Block	practice	30	20141013.120635	same	100	same	1	2602
MB	233	27	M	PSYC4802-20144	1.0	Block	exp	31	20141013.120639	diff	60	diff	1	1946
MB	233	27	M	PSYC4802-20144	1.0	Block	exp	32	20141013.120643	diff	20	diff	1	2821
MB	233	27	M	PSYC4802-20144	1.0	Block	exp	33	20141013.120648	diff	100	same	0	3421
MB	233	27	M	PSYC4802-20144	1.0	Block	exp	34	20141013.120654	same	60	same	1	2096
MB	233	27	M	PSYC4802-20144	1.0	Block	exp	35	20141013.120658	diff	100	same	0	2802
MB	233	27	M	PSYC4802-20144	1.0	Block	exp	36	20141013.120703	same	20	same	1	1366
MB	233	27	M	PSYC4802-20144	1.0	Block	exp	37	20141013.120706	diff	60	diff	1	1746
MB	233	27	M	PSYC4802-20144	1.0	Block	exp	38	20141013.120710	same	60	same	1	1381
MB	233	27	M	PSYC4802-20144	1.0	Block	exp	39	20141013.120713	same	60	diff	0	1626
MB	233	27	M	PSYC4802-20144	1.0	Block	exp	40	20141013.120717	diff	60	same	0	2011
MB	233	27	M	PSYC4802-20144	1.0	Block	exp	41	20141013.120721	diff	60	diff	1	2116
MB	233	27	M	PSYC4802-20144	1.0	Block	exp	42	20141013.120725	same	60	same	1	1121
MB	233	27	M	PSYC4802-20144	1.0	Block	exp	43	20141013.120728	diff	20	same	0	1896
MB	233	27	M	PSYC4802-20144	1.0	Block	exp	44	20141013.120732	diff	100	same	0	3141
MB	233	27	M	PSYC4802-20144	1.0	Block	exp	45	20141013.120738	diff	20	same	0	1997
MB	233	27	M	PSYC4802-20144	1.0	Block	exp	46	20141013.120742	diff	100	same	0	1461
MB	233	27	M	PSYC4802-20144	1.0	Block	exp	47	20141013.120745	diff	100	diff	1	867
MB	233	27	M	PSYC4802-20144	1.0	Block	exp	48	20141013.120748	same	60	diff	0	926
MB	233	27	M	PSYC4802-20144	1.0	Block	exp	49	20141013.120751	same	100	diff	0	2486
MB	233	27	M	PSYC4802-20144	1.0	Block	exp	50	20141013.120756	same	100	same	1	2041
MB	233	27	M	PSYC4802-20144	1.0	Block	exp	51	20141013.120803	diff	60	diff	1	1411
MB	233	27	M	PSYC4802-20144	1.0	Block	exp	52	20141013.120807	diff	60	same	0	1237
MB	233	27	M	PSYC4802-20144	1.0	Block	exp	53	20141013.120810	same	100	same	1	1331
MB	233	27	M	PSYC4802-20144	1.0	Block	exp	54	20141013.120813	diff	60	same	0	1616
MB	233	27	M	PSYC4802-20144	1.0	Block	exp	55	20141013.120817	same	60	diff	0	1386
MB	233	27	M	PSYC4802-20144	1.0	Block	exp	56	20141013.120820	diff	20	same	0	651
MB	233	27	M	PSYC4802-20144	1.0	Block	exp	57	20141013.120823	same	60	same	1	971
MB	233	27	M	PSYC4802-20144	1.0	Block	exp	58	20141013.120826	diff	20	same	0	2221
MB	233	27	M	PSYC4802-20144	1.0	Block	exp	59	20141013.120831	diff	100	diff	1	1681
MB	233	27	M	PSYC4802-20144	1.0	Block	exp	60	20141013.120834	diff	100	same	0	1196
MB	233	27	M	PSYC4802-20144	1.0	Block	exp	61	20141013.120838	same	100	same	1	1561
MB	233	27	M	PSYC4802-20144	1.0	Block	exp	62	20141013.120841	diff	100	same	0	1531
MB	233	27	M	PSYC4802-20144	1.0	Block	exp	63	20141013.120845	same	20	diff	0	811
MB	233	27	M	PSYC4802-20144	1.0	Block	exp	64	20141013.120848	diff	60	same	0	1952
MB	233	27	M	PSYC4802-20144	1.0	Block	exp	65	20141013.120852	diff	100	same	0	1726
MB	233	27	M	PSYC4802-20144	1.0	Block	exp	66	20141013.120855	same	100	same	1	2671
MB	233	27	M	PSYC4802-20144	1.0	Block	exp	67	20141013.120900	same	20	same	1	2066
MB	233	27	M	PSYC4802-20144	1.0	Block	exp	68	20141013.120904	same	20	same	1	2361
MB	233	27	M	PSYC4802-20144	1.0	Block	exp	69	20141013.120909	diff	60	same	0	2231
MB	233	27	M	PSYC4802-20144	1.0	Block	exp	70	20141013.120913	same	100	same	1	1961
MB	233	27	M	PSYC4802-20144	1.0	Block	exp	71	20141013.120917	diff	20	diff	1	2356
MB	233	27	M	PSYC4802-20144	1.0	Block	exp	72	20141013.120921	diff	20	same	0	2001
MB	233	27	M	PSYC4802-20144	1.0	Block	exp	73	20141013.120926	same	100	diff	0	1212
MB	233	27	M	PSYC4802-20144	1.0	Block	exp	74	20141013.120929	same	100	same	1	1656
MB	233	27	M	PSYC4802-20144	1.0	Block	exp	75	20141013.120932	diff	100	same	0	1986
MB	233	27	M	PSYC4802-20144	1.0	Block	exp	76	20141013.120940	diff	20	same	0	1186
MB	233	27	M	PSYC4802-20144	1.0	Block	exp	77	20141013.120943	diff	60	same	0	1201
MB	233	27	M	PSYC4802-20144	1.0	Block	exp	78	20141013.120946	diff	100	same	0	2707
MB	233	27	M	PSYC4802-20144	1.0	Block	exp	79	20141013.120951	same	60	same	1	2762
MB	233	27	M	PSYC4802-20144	1.0	Block	exp	80	20141013.120956	same	100	same	1	1856
MB	233	27	M	PSYC4802-20144	1.0	Block	exp	81	20141013.121000	same	60	same	1	1222
MB	233	27	M	PSYC4802-20144	1.0	Block	exp	82	20141013.121003	same	60	same	1	2731
MB	233	27	M	PSYC4802-20144	1.0	Block	exp	83	20141013.121008	same	20	same	1	1626
MB	233	27	M	PSYC4802-20144	1.0	Block	exp	84	20141013.121011	same	60	same	1	2306
MB	233	27	M	PSYC4802-20144	1.0	Block	exp	85	20141013.121016	diff	100	diff	1	2196
MB	233	27	M	PSYC4802-20144	1.0	Block	exp	86	20141013.121020	same	60	same	1	1477
MB	233	27	M	PSYC4802-20144	1.0	Block	exp	87	20141013.121024	same	20	same	1	1726
MB	233	27	M	PSYC4802-20144	1.0	Block	exp	88	20141013.121027	diff	100	same	0	2087
MB	233	27	M	PSYC4802-20144	1.0	Block	exp	89	20141013.121031	diff	20	diff	1	1956
MB	233	27	M	PSYC4802-20144	1.0	Block	exp	90	20141013.121035	same	20	same	1	1491
MB	233	27	M	PSYC4802-20144	1.0	Block	exp	91	20141013.121039	same	20	same	1	1576
MB	233	27	M	PSYC4802-20144	1.0	Block	exp	92	20141013.121043	diff	60	same	0	1511
MB	233	27	M	PSYC4802-20144	1.0	Block	exp	93	20141013.121046	same	60	same	1	1626
MB	233	27	M	PSYC4802-20144	1.0	Block	exp	94	20141013.121050	diff	20	same	0	1361
MB	233	27	M	PSYC4802-20144	1.0	Block	exp	95	20141013.121053	same	60	same	1	1626
MB	233	27	M	PSYC4802-20144	1.0	Block	exp	96	20141013.121057	same	60	diff	0	1806
MB	233	27	M	PSYC4802-20144	1.0	Block	exp	97	20141013.121101	diff	60	same	0	1182
MB	233	27	M	PSYC4802-20144	1.0	Block	exp	98	20141013.121104	diff	60	same	0	2397
MB	233	27	M	PSYC4802-20144	1.0	Block	exp	99	20141013.121109	diff	20	diff	1	1906
MB	233	27	M	PSYC4802-20144	1.0	Block	exp	100	20141013.121113	same	100	diff	0	1841
MB	233	27	M	PSYC4802-20144	1.0	Block	exp	101	20141013.121217	diff	60	diff	1	1336
MB	233	27	M	PSYC4802-20144	1.0	Block	exp	102	20141013.121220	same	100	same	1	1026
MB	233	27	M	PSYC4802-20144	1.0	Block	exp	103	20141013.121223	diff	20	diff	1	1226
MB	233	27	M	PSYC4802-20144	1.0	Block	exp	104	20141013.121226	diff	60	same	0	1416
MB	233	27	M	PSYC4802-20144	1.0	Block	exp	105	20141013.121230	same	20	same	1	1166
MB	233	27	M	PSYC4802-20144	1.0	Block	exp	106	20141013.121233	same	100	same	1	1281
MB	233	27	M	PSYC4802-20144	1.0	Block	exp	107	20141013.121236	same	100	same	1	2077
MB	233	27	M	PSYC4802-20144	1.0	Block	exp	108	20141013.121241	same	20	same	1	1541
MB	233	27	M	PSYC4802-20144	1.0	Block	exp	109	20141013.121244	same	20	same	1	1321
MB	233	27	M	PSYC4802-20144	1.0	Block	exp	110	20141013.121248	diff	100	same	0	1531
MB	233	27	M	PSYC4802-20144	1.0	Block	exp	111	20141013.121251	diff	60	same	0	1846
MB	233	27	M	PSYC4802-20144	1.0	Block	exp	112	20141013.121255	same	60	same	1	1256
MB	233	27	M	PSYC4802-20144	1.0	Block	exp	113	20141013.121258	same	100	diff	0	1591
MB	233	27	M	PSYC4802-20144	1.0	Block	exp	114	20141013.121302	diff	60	same	0	2141
MB	233	27	M	PSYC4802-20144	1.0	Block	exp	115	20141013.121306	diff	60	same	0	1286
MB	233	27	M	PSYC4802-20144	1.0	Block	exp	116	20141013.121310	same	100	diff	0	1581
MB	233	27	M	PSYC4802-20144	1.0	Block	exp	117	20141013.121313	same	20	same	1	1376
MB	233	27	M	PSYC4802-20144	1.0	Block	exp	118	20141013.121317	same	20	same	1	1241
MB	233	27	M	PSYC4802-20144	1.0	Block	exp	119	20141013.121320	diff	100	same	0	2221
MB	233	27	M	PSYC4802-20144	1.0	Block	exp	120	20141013.121324	diff	20	diff	1	1506
MB	233	27	M	PSYC4802-20144	1.0	Block	exp	121	20141013.121328	diff	100	diff	1	1702
MB	233	27	M	PSYC4802-20144	1.0	Block	exp	122	20141013.121332	diff	100	diff	1	2056
MB	233	27	M	PSYC4802-20144	1.0	Block	exp	123	20141013.121336	same	60	diff	0	1391
MB	233	27	M	PSYC4802-20144	1.0	Block	exp	124	20141013.121339	diff	60	same	0	1511
MB	233	27	M	PSYC4802-20144	1.0	Block	exp	125	20141013.121343	same	100	same	1	1561
MB	233	27	M	PSYC4802-20144	1.0	Block	exp	126	20141013.121346	same	20	same	1	1716
MB	233	27	M	PSYC4802-20144	1.0	Block	exp	127	20141013.121350	diff	20	same	0	1342
MB	233	27	M	PSYC4802-20144	1.0	Block	exp	128	20141013.121353	diff	20	same	0	1771
MB	233	27	M	PSYC4802-20144	1.0	Block	exp	129	20141013.121357	same	100	diff	0	1716
MB	233	27	M	PSYC4802-20144	1.0	Block	exp	130	20141013.121401	diff	20	diff	1	2121
MB	233	27	M	PSYC4802-20144	1.0	Block	exp	131	20141013.121405	same	20	same	1	2241
MB	233	27	M	PSYC4802-20144	1.0	Block	exp	132	20141013.121410	same	100	same	1	1636
MB	233	27	M	PSYC4802-20144	1.0	Block	exp	133	20141013.121413	same	60	same	1	1827
MB	233	27	M	PSYC4802-20144	1.0	Block	exp	134	20141013.121417	same	20	same	1	1876
MB	233	27	M	PSYC4802-20144	1.0	Block	exp	135	20141013.121421	same	100	same	1	1526
MB	233	27	M	PSYC4802-20144	1.0	Block	exp	136	20141013.121425	diff	20	same	0	1351
MB	233	27	M	PSYC4802-20144	1.0	Block	exp	137	20141013.121428	diff	60	same	0	1432
MB	233	27	M	PSYC4802-20144	1.0	Block	exp	138	20141013.121432	same	60	diff	0	1911
MB	233	27	M	PSYC4802-20144	1.0	Block	exp	139	20141013.121436	diff	100	same	0	1681
MB	233	27	M	PSYC4802-20144	1.0	Block	exp	140	20141013.121439	same	20	same	1	2066
MB	233	27	M	PSYC4802-20144	1.0	Block	exp	141	20141013.121443	diff	100	same	0	1456
MB	233	27	M	PSYC4802-20144	1.0	Block	exp	142	20141013.121447	diff	100	same	0	2106
MB	233	27	M	PSYC4802-20144	1.0	Block	exp	143	20141013.121451	diff	20	diff	1	2622
MB	233	27	M	PSYC4802-20144	1.0	Block	exp	144	20141013.121456	same	20	same	1	1666
MB	233	27	M	PSYC4802-20144	1.0	Block	exp	145	20141013.121459	diff	20	same	0	2096
MB	233	27	M	PSYC4802-20144	1.0	Block	exp	146	20141013.121504	same	20	same	1	1206
MB	233	27	M	PSYC4802-20144	1.0	Block	exp	147	20141013.121507	same	60	diff	0	1051
MB	233	27	M	PSYC4802-20144	1.0	Block	exp	148	20141013.121510	same	20	same	1	1491
MB	233	27	M	PSYC4802-20144	1.0	Block	exp	149	20141013.121514	same	100	same	1	2286
MB	233	27	M	PSYC4802-20144	1.0	Block	exp	150	20141013.121518	diff	20	same	0	1696
