Experimenter	Subject	Age	Sex	Experiment	Version	Block	TrialType	Trial	Timestamp	SameDiff	Rotation	Response	Acc	RT
jm	68	19	f	PSYC4802-20142	1.0	Block	practice	1	20140425.111923	same	20	same	1	5327
jm	68	19	f	PSYC4802-20142	1.0	Block	practice	2	20140425.111930	diff	20	same	0	9265
jm	68	19	f	PSYC4802-20142	1.0	Block	practice	3	20140425.111942	same	60	same	1	6862
jm	68	19	f	PSYC4802-20142	1.0	Block	practice	4	20140425.111950	diff	60	diff	1	9493
jm	68	19	f	PSYC4802-20142	1.0	Block	practice	5	20140425.112002	same	20	same	1	4595
jm	68	19	f	PSYC4802-20142	1.0	Block	practice	6	20140425.112008	diff	100	diff	1	9622
jm	68	19	f	PSYC4802-20142	1.0	Block	practice	7	20140425.112020	diff	60	diff	1	17057
jm	68	19	f	PSYC4802-20142	1.0	Block	practice	8	20140425.112039	diff	100	diff	1	9652
jm	68	19	f	PSYC4802-20142	1.0	Block	practice	9	20140425.112051	same	100	same	1	6517
jm	68	19	f	PSYC4802-20142	1.0	Block	practice	10	20140425.112059	same	100	diff	0	6733
jm	68	19	f	PSYC4802-20142	1.0	Block	practice	11	20140425.112108	diff	20	diff	1	7782
jm	68	19	f	PSYC4802-20142	1.0	Block	practice	12	20140425.112118	diff	60	diff	1	12065
jm	68	19	f	PSYC4802-20142	1.0	Block	practice	13	20140425.112132	diff	20	same	0	7208
jm	68	19	f	PSYC4802-20142	1.0	Block	practice	14	20140425.112141	same	60	same	1	5509
jm	68	19	f	PSYC4802-20142	1.0	Block	practice	15	20140425.112149	same	60	same	1	5895
jm	68	19	f	PSYC4802-20142	1.0	Block	practice	16	20140425.112157	same	60	same	1	6534
jm	68	19	f	PSYC4802-20142	1.0	Block	practice	17	20140425.112205	same	20	same	1	7349
jm	68	19	f	PSYC4802-20142	1.0	Block	practice	18	20140425.112215	same	100	same	1	8269
jm	68	19	f	PSYC4802-20142	1.0	Block	practice	19	20140425.112225	same	100	same	1	9183
jm	68	19	f	PSYC4802-20142	1.0	Block	practice	20	20140425.112236	same	100	same	1	6376
jm	68	19	f	PSYC4802-20142	1.0	Block	practice	21	20140425.112245	diff	100	diff	1	14737
jm	68	19	f	PSYC4802-20142	1.0	Block	practice	22	20140425.112301	diff	60	diff	1	4589
jm	68	19	f	PSYC4802-20142	1.0	Block	practice	23	20140425.112308	same	60	same	1	5930
jm	68	19	f	PSYC4802-20142	1.0	Block	practice	24	20140425.112316	diff	20	diff	1	5954
jm	68	19	f	PSYC4802-20142	1.0	Block	practice	25	20140425.112324	same	20	same	1	5269
jm	68	19	f	PSYC4802-20142	1.0	Block	practice	26	20140425.112331	diff	20	diff	1	4595
jm	68	19	f	PSYC4802-20142	1.0	Block	practice	27	20140425.112338	diff	100	diff	1	5017
jm	68	19	f	PSYC4802-20142	1.0	Block	practice	28	20140425.112345	same	20	same	1	2690
jm	68	19	f	PSYC4802-20142	1.0	Block	practice	29	20140425.112349	diff	60	diff	1	5826
jm	68	19	f	PSYC4802-20142	1.0	Block	practice	30	20140425.112357	diff	100	diff	1	5205
jm	68	19	f	PSYC4802-20142	1.0	Block	exp	31	20140425.112405	same	20	same	1	5151
jm	68	19	f	PSYC4802-20142	1.0	Block	exp	32	20140425.112412	diff	20	diff	1	4326
jm	68	19	f	PSYC4802-20142	1.0	Block	exp	33	20140425.112418	diff	20	diff	1	7601
jm	68	19	f	PSYC4802-20142	1.0	Block	exp	34	20140425.112428	diff	100	diff	1	2773
jm	68	19	f	PSYC4802-20142	1.0	Block	exp	35	20140425.112432	same	20	same	1	4138
jm	68	19	f	PSYC4802-20142	1.0	Block	exp	36	20140425.112439	same	20	same	1	3458
jm	68	19	f	PSYC4802-20142	1.0	Block	exp	37	20140425.112444	diff	100	diff	1	5960
jm	68	19	f	PSYC4802-20142	1.0	Block	exp	38	20140425.112452	same	20	same	1	4003
jm	68	19	f	PSYC4802-20142	1.0	Block	exp	39	20140425.112458	diff	60	diff	1	3622
jm	68	19	f	PSYC4802-20142	1.0	Block	exp	40	20140425.112504	same	20	same	1	4249
jm	68	19	f	PSYC4802-20142	1.0	Block	exp	41	20140425.112510	diff	100	diff	1	3938
jm	68	19	f	PSYC4802-20142	1.0	Block	exp	42	20140425.112516	same	100	same	1	5596
jm	68	19	f	PSYC4802-20142	1.0	Block	exp	43	20140425.112524	same	60	same	1	4935
jm	68	19	f	PSYC4802-20142	1.0	Block	exp	44	20140425.112531	same	60	same	1	3833
jm	68	19	f	PSYC4802-20142	1.0	Block	exp	45	20140425.112536	diff	20	diff	1	3417
jm	68	19	f	PSYC4802-20142	1.0	Block	exp	46	20140425.112542	same	20	same	1	3798
jm	68	19	f	PSYC4802-20142	1.0	Block	exp	47	20140425.112548	same	20	same	1	3974
jm	68	19	f	PSYC4802-20142	1.0	Block	exp	48	20140425.112554	diff	20	diff	1	1835
jm	68	19	f	PSYC4802-20142	1.0	Block	exp	49	20140425.112557	diff	100	diff	1	4378
jm	68	19	f	PSYC4802-20142	1.0	Block	exp	50	20140425.112604	diff	20	diff	1	5328
jm	68	19	f	PSYC4802-20142	1.0	Block	exp	51	20140425.112626	same	60	same	1	4184
jm	68	19	f	PSYC4802-20142	1.0	Block	exp	52	20140425.112633	diff	20	diff	1	4888
jm	68	19	f	PSYC4802-20142	1.0	Block	exp	53	20140425.112639	same	100	diff	0	3194
jm	68	19	f	PSYC4802-20142	1.0	Block	exp	54	20140425.112645	same	20	diff	0	6294
jm	68	19	f	PSYC4802-20142	1.0	Block	exp	55	20140425.112653	diff	60	diff	1	5790
jm	68	19	f	PSYC4802-20142	1.0	Block	exp	56	20140425.112701	same	60	same	1	5315
jm	68	19	f	PSYC4802-20142	1.0	Block	exp	57	20140425.112708	same	60	same	1	6453
jm	68	19	f	PSYC4802-20142	1.0	Block	exp	58	20140425.112716	diff	100	diff	1	6722
jm	68	19	f	PSYC4802-20142	1.0	Block	exp	59	20140425.112725	diff	20	diff	1	5263
jm	68	19	f	PSYC4802-20142	1.0	Block	exp	60	20140425.112732	diff	60	diff	1	4342
jm	68	19	f	PSYC4802-20142	1.0	Block	exp	61	20140425.112739	diff	20	diff	1	4577
jm	68	19	f	PSYC4802-20142	1.0	Block	exp	62	20140425.112745	same	20	same	1	3733
jm	68	19	f	PSYC4802-20142	1.0	Block	exp	63	20140425.112751	same	60	same	1	6037
jm	68	19	f	PSYC4802-20142	1.0	Block	exp	64	20140425.112759	same	100	same	1	8333
jm	68	19	f	PSYC4802-20142	1.0	Block	exp	65	20140425.112809	same	100	same	1	5093
jm	68	19	f	PSYC4802-20142	1.0	Block	exp	66	20140425.112817	diff	60	diff	1	7331
jm	68	19	f	PSYC4802-20142	1.0	Block	exp	67	20140425.112826	same	100	same	1	9417
jm	68	19	f	PSYC4802-20142	1.0	Block	exp	68	20140425.112837	diff	60	diff	1	2702
jm	68	19	f	PSYC4802-20142	1.0	Block	exp	69	20140425.112842	diff	20	diff	1	2591
jm	68	19	f	PSYC4802-20142	1.0	Block	exp	70	20140425.112847	diff	20	diff	1	5234
jm	68	19	f	PSYC4802-20142	1.0	Block	exp	71	20140425.112854	same	100	same	1	4994
jm	68	19	f	PSYC4802-20142	1.0	Block	exp	72	20140425.112901	diff	60	diff	1	7191
jm	68	19	f	PSYC4802-20142	1.0	Block	exp	73	20140425.112910	diff	20	diff	1	3423
jm	68	19	f	PSYC4802-20142	1.0	Block	exp	74	20140425.112916	diff	100	diff	1	4882
jm	68	19	f	PSYC4802-20142	1.0	Block	exp	75	20140425.112922	diff	100	diff	1	6938
jm	68	19	f	PSYC4802-20142	1.0	Block	exp	76	20140425.112931	same	100	same	1	4478
jm	68	19	f	PSYC4802-20142	1.0	Block	exp	77	20140425.112938	diff	20	diff	1	5708
jm	68	19	f	PSYC4802-20142	1.0	Block	exp	78	20140425.112946	diff	60	diff	1	2902
jm	68	19	f	PSYC4802-20142	1.0	Block	exp	79	20140425.112950	diff	100	diff	1	3815
jm	68	19	f	PSYC4802-20142	1.0	Block	exp	80	20140425.112956	diff	60	diff	1	2737
jm	68	19	f	PSYC4802-20142	1.0	Block	exp	81	20140425.113001	diff	100	diff	1	3048
jm	68	19	f	PSYC4802-20142	1.0	Block	exp	82	20140425.113006	diff	60	diff	1	3962
jm	68	19	f	PSYC4802-20142	1.0	Block	exp	83	20140425.113012	diff	100	diff	1	3288
jm	68	19	f	PSYC4802-20142	1.0	Block	exp	84	20140425.113017	same	60	same	1	3628
jm	68	19	f	PSYC4802-20142	1.0	Block	exp	85	20140425.113023	same	60	same	1	4789
jm	68	19	f	PSYC4802-20142	1.0	Block	exp	86	20140425.113030	diff	100	diff	1	5345
jm	68	19	f	PSYC4802-20142	1.0	Block	exp	87	20140425.113037	same	60	same	1	4273
jm	68	19	f	PSYC4802-20142	1.0	Block	exp	88	20140425.113043	same	100	same	1	5005
jm	68	19	f	PSYC4802-20142	1.0	Block	exp	89	20140425.113050	diff	20	diff	1	3124
jm	68	19	f	PSYC4802-20142	1.0	Block	exp	90	20140425.113055	same	20	same	1	4794
jm	68	19	f	PSYC4802-20142	1.0	Block	exp	91	20140425.113102	same	20	same	1	3663
jm	68	19	f	PSYC4802-20142	1.0	Block	exp	92	20140425.113108	diff	100	diff	1	5608
jm	68	19	f	PSYC4802-20142	1.0	Block	exp	93	20140425.113116	diff	100	diff	1	2989
jm	68	19	f	PSYC4802-20142	1.0	Block	exp	94	20140425.113121	same	100	same	1	3358
jm	68	19	f	PSYC4802-20142	1.0	Block	exp	95	20140425.113126	same	100	same	1	3160
jm	68	19	f	PSYC4802-20142	1.0	Block	exp	96	20140425.113131	same	60	same	1	3452
jm	68	19	f	PSYC4802-20142	1.0	Block	exp	97	20140425.113137	same	20	same	1	3154
jm	68	19	f	PSYC4802-20142	1.0	Block	exp	98	20140425.113142	diff	60	diff	1	3147
jm	68	19	f	PSYC4802-20142	1.0	Block	exp	99	20140425.113147	diff	60	diff	1	4537
jm	68	19	f	PSYC4802-20142	1.0	Block	exp	100	20140425.113153	diff	60	same	0	5620
jm	68	19	f	PSYC4802-20142	1.0	Block	exp	101	20140425.113227	diff	60	diff	1	2479
jm	68	19	f	PSYC4802-20142	1.0	Block	exp	102	20140425.113232	same	60	same	1	5849
jm	68	19	f	PSYC4802-20142	1.0	Block	exp	103	20140425.113240	diff	20	diff	1	4343
jm	68	19	f	PSYC4802-20142	1.0	Block	exp	104	20140425.113246	same	20	same	1	5098
jm	68	19	f	PSYC4802-20142	1.0	Block	exp	105	20140425.113253	diff	100	diff	1	2146
jm	68	19	f	PSYC4802-20142	1.0	Block	exp	106	20140425.113257	same	100	same	1	3816
jm	68	19	f	PSYC4802-20142	1.0	Block	exp	107	20140425.113303	same	20	same	1	3921
jm	68	19	f	PSYC4802-20142	1.0	Block	exp	108	20140425.113309	diff	20	diff	1	4982
jm	68	19	f	PSYC4802-20142	1.0	Block	exp	109	20140425.113316	same	20	same	1	3364
jm	68	19	f	PSYC4802-20142	1.0	Block	exp	110	20140425.113321	same	100	same	1	5533
jm	68	19	f	PSYC4802-20142	1.0	Block	exp	111	20140425.113329	same	60	same	1	3516
jm	68	19	f	PSYC4802-20142	1.0	Block	exp	112	20140425.113334	same	60	same	1	3839
jm	68	19	f	PSYC4802-20142	1.0	Block	exp	113	20140425.113340	same	20	same	1	2246
jm	68	19	f	PSYC4802-20142	1.0	Block	exp	114	20140425.113344	same	100	same	1	4501
jm	68	19	f	PSYC4802-20142	1.0	Block	exp	115	20140425.113351	diff	100	diff	1	2714
jm	68	19	f	PSYC4802-20142	1.0	Block	exp	116	20140425.113356	same	60	same	1	2714
jm	68	19	f	PSYC4802-20142	1.0	Block	exp	117	20140425.113400	diff	60	diff	1	5087
jm	68	19	f	PSYC4802-20142	1.0	Block	exp	118	20140425.113407	diff	20	diff	1	3898
jm	68	19	f	PSYC4802-20142	1.0	Block	exp	119	20140425.113413	diff	100	diff	1	2972
jm	68	19	f	PSYC4802-20142	1.0	Block	exp	120	20140425.113418	diff	100	diff	1	3001
jm	68	19	f	PSYC4802-20142	1.0	Block	exp	121	20140425.113423	same	100	same	1	4654
jm	68	19	f	PSYC4802-20142	1.0	Block	exp	122	20140425.113430	diff	100	diff	1	3188
jm	68	19	f	PSYC4802-20142	1.0	Block	exp	123	20140425.113435	diff	100	diff	1	2491
jm	68	19	f	PSYC4802-20142	1.0	Block	exp	124	20140425.113440	diff	60	diff	1	3176
jm	68	19	f	PSYC4802-20142	1.0	Block	exp	125	20140425.113445	diff	60	diff	1	5017
jm	68	19	f	PSYC4802-20142	1.0	Block	exp	126	20140425.113452	same	60	same	1	5280
jm	68	19	f	PSYC4802-20142	1.0	Block	exp	127	20140425.113459	same	100	same	1	4138
jm	68	19	f	PSYC4802-20142	1.0	Block	exp	128	20140425.113505	same	60	same	1	4507
jm	68	19	f	PSYC4802-20142	1.0	Block	exp	129	20140425.113512	diff	60	diff	1	3634
jm	68	19	f	PSYC4802-20142	1.0	Block	exp	130	20140425.113517	diff	60	diff	1	3540
jm	68	19	f	PSYC4802-20142	1.0	Block	exp	131	20140425.113523	same	20	same	1	2872
jm	68	19	f	PSYC4802-20142	1.0	Block	exp	132	20140425.113528	same	100	diff	0	5719
jm	68	19	f	PSYC4802-20142	1.0	Block	exp	133	20140425.113535	diff	20	diff	1	3639
jm	68	19	f	PSYC4802-20142	1.0	Block	exp	134	20140425.113541	diff	20	diff	1	2696
jm	68	19	f	PSYC4802-20142	1.0	Block	exp	135	20140425.113546	diff	20	diff	1	3745
jm	68	19	f	PSYC4802-20142	1.0	Block	exp	136	20140425.113551	diff	100	diff	1	3651
jm	68	19	f	PSYC4802-20142	1.0	Block	exp	137	20140425.113557	same	20	same	1	3552
jm	68	19	f	PSYC4802-20142	1.0	Block	exp	138	20140425.113603	same	100	same	1	3294
jm	68	19	f	PSYC4802-20142	1.0	Block	exp	139	20140425.113608	diff	20	diff	1	4109
jm	68	19	f	PSYC4802-20142	1.0	Block	exp	140	20140425.113614	same	20	same	1	2186
jm	68	19	f	PSYC4802-20142	1.0	Block	exp	141	20140425.113618	diff	60	diff	1	3563
jm	68	19	f	PSYC4802-20142	1.0	Block	exp	142	20140425.113624	same	60	same	1	2685
jm	68	19	f	PSYC4802-20142	1.0	Block	exp	143	20140425.113628	diff	60	diff	1	5403
jm	68	19	f	PSYC4802-20142	1.0	Block	exp	144	20140425.113636	same	100	same	1	4794
jm	68	19	f	PSYC4802-20142	1.0	Block	exp	145	20140425.113642	same	100	same	1	3926
jm	68	19	f	PSYC4802-20142	1.0	Block	exp	146	20140425.113648	same	60	same	1	3575
jm	68	19	f	PSYC4802-20142	1.0	Block	exp	147	20140425.113654	same	60	same	1	2368
jm	68	19	f	PSYC4802-20142	1.0	Block	exp	148	20140425.113658	same	100	same	1	2925
jm	68	19	f	PSYC4802-20142	1.0	Block	exp	149	20140425.113703	same	60	same	1	5972
jm	68	19	f	PSYC4802-20142	1.0	Block	exp	150	20140425.113711	same	20	same	1	3734
