Experimenter	Subject	Age	Sex	Experiment	Version	Block	TrialType	Trial	Timestamp	SameDiff	Rotation	Response	Acc	RT
EMT	72	20	f	PSYC4802-20142	1.0	Block	practice	1	20140425.114621	diff	60	same	0	6499
EMT	72	20	f	PSYC4802-20142	1.0	Block	practice	2	20140425.114630	same	100	diff	0	9001
EMT	72	20	f	PSYC4802-20142	1.0	Block	practice	3	20140425.114641	diff	100	diff	1	15921
EMT	72	20	f	PSYC4802-20142	1.0	Block	practice	4	20140425.114659	diff	60	diff	1	7425
EMT	72	20	f	PSYC4802-20142	1.0	Block	practice	5	20140425.114708	same	60	same	1	6066
EMT	72	20	f	PSYC4802-20142	1.0	Block	practice	6	20140425.114716	same	100	diff	0	10014
EMT	72	20	f	PSYC4802-20142	1.0	Block	practice	7	20140425.114728	diff	20	diff	1	5954
EMT	72	20	f	PSYC4802-20142	1.0	Block	practice	8	20140425.114736	same	60	diff	0	6253
EMT	72	20	f	PSYC4802-20142	1.0	Block	practice	9	20140425.114745	diff	100	diff	1	8878
EMT	72	20	f	PSYC4802-20142	1.0	Block	practice	10	20140425.114755	diff	20	diff	1	17690
EMT	72	20	f	PSYC4802-20142	1.0	Block	practice	11	20140425.114815	diff	100	diff	1	5596
EMT	72	20	f	PSYC4802-20142	1.0	Block	practice	12	20140425.114823	diff	100	diff	1	8251
EMT	72	20	f	PSYC4802-20142	1.0	Block	practice	13	20140425.114833	diff	60	diff	1	10958
EMT	72	20	f	PSYC4802-20142	1.0	Block	practice	14	20140425.114846	diff	60	diff	1	4947
EMT	72	20	f	PSYC4802-20142	1.0	Block	practice	15	20140425.114853	same	20	multi	-2	3171
EMT	72	20	f	PSYC4802-20142	1.0	Block	practice	16	20140425.114858	diff	20	diff	1	5480
EMT	72	20	f	PSYC4802-20142	1.0	Block	practice	17	20140425.114905	same	60	diff	0	4085
EMT	72	20	f	PSYC4802-20142	1.0	Block	practice	18	20140425.114912	same	100	diff	0	6933
EMT	72	20	f	PSYC4802-20142	1.0	Block	practice	19	20140425.114920	same	60	diff	0	8714
EMT	72	20	f	PSYC4802-20142	1.0	Block	practice	20	20140425.114931	same	20	same	1	3851
EMT	72	20	f	PSYC4802-20142	1.0	Block	practice	21	20140425.114937	diff	20	diff	1	6605
EMT	72	20	f	PSYC4802-20142	1.0	Block	practice	22	20140425.114946	same	20	same	1	3300
EMT	72	20	f	PSYC4802-20142	1.0	Block	practice	23	20140425.114951	same	20	same	1	3136
EMT	72	20	f	PSYC4802-20142	1.0	Block	practice	24	20140425.114956	diff	100	same	0	4912
EMT	72	20	f	PSYC4802-20142	1.0	Block	practice	25	20140425.115003	diff	60	same	0	4565
EMT	72	20	f	PSYC4802-20142	1.0	Block	practice	26	20140425.115010	same	20	same	1	5931
EMT	72	20	f	PSYC4802-20142	1.0	Block	practice	27	20140425.115018	same	100	diff	0	3377
EMT	72	20	f	PSYC4802-20142	1.0	Block	practice	28	20140425.115023	same	100	diff	0	9775
EMT	72	20	f	PSYC4802-20142	1.0	Block	practice	29	20140425.115035	same	60	same	1	3850
EMT	72	20	f	PSYC4802-20142	1.0	Block	practice	30	20140425.115041	diff	20	diff	1	3669
EMT	72	20	f	PSYC4802-20142	1.0	Block	exp	31	20140425.115046	same	100	diff	0	3259
EMT	72	20	f	PSYC4802-20142	1.0	Block	exp	32	20140425.115052	diff	20	diff	1	4185
EMT	72	20	f	PSYC4802-20142	1.0	Block	exp	33	20140425.115058	same	100	diff	0	6475
EMT	72	20	f	PSYC4802-20142	1.0	Block	exp	34	20140425.115106	same	60	diff	0	4203
EMT	72	20	f	PSYC4802-20142	1.0	Block	exp	35	20140425.115112	diff	20	same	0	4173
EMT	72	20	f	PSYC4802-20142	1.0	Block	exp	36	20140425.115119	same	60	same	1	3751
EMT	72	20	f	PSYC4802-20142	1.0	Block	exp	37	20140425.115124	same	60	same	1	3002
EMT	72	20	f	PSYC4802-20142	1.0	Block	exp	38	20140425.115130	same	60	same	1	4770
EMT	72	20	f	PSYC4802-20142	1.0	Block	exp	39	20140425.115136	same	60	same	1	3704
EMT	72	20	f	PSYC4802-20142	1.0	Block	exp	40	20140425.115142	same	60	same	1	3206
EMT	72	20	f	PSYC4802-20142	1.0	Block	exp	41	20140425.115147	same	100	same	1	5966
EMT	72	20	f	PSYC4802-20142	1.0	Block	exp	42	20140425.115155	same	100	same	1	6675
EMT	72	20	f	PSYC4802-20142	1.0	Block	exp	43	20140425.115204	diff	100	same	0	6037
EMT	72	20	f	PSYC4802-20142	1.0	Block	exp	44	20140425.115212	diff	100	diff	1	4958
EMT	72	20	f	PSYC4802-20142	1.0	Block	exp	45	20140425.115219	same	20	same	1	2515
EMT	72	20	f	PSYC4802-20142	1.0	Block	exp	46	20140425.115224	same	60	same	1	2784
EMT	72	20	f	PSYC4802-20142	1.0	Block	exp	47	20140425.115229	diff	100	same	0	6025
EMT	72	20	f	PSYC4802-20142	1.0	Block	exp	48	20140425.115237	same	60	same	1	6950
EMT	72	20	f	PSYC4802-20142	1.0	Block	exp	49	20140425.115246	diff	20	diff	1	3927
EMT	72	20	f	PSYC4802-20142	1.0	Block	exp	50	20140425.115252	same	20	same	1	3294
EMT	72	20	f	PSYC4802-20142	1.0	Block	exp	51	20140425.115306	same	60	same	1	7565
EMT	72	20	f	PSYC4802-20142	1.0	Block	exp	52	20140425.115315	diff	100	diff	1	6077
EMT	72	20	f	PSYC4802-20142	1.0	Block	exp	53	20140425.115323	diff	20	diff	1	3318
EMT	72	20	f	PSYC4802-20142	1.0	Block	exp	54	20140425.115329	diff	100	same	0	4425
EMT	72	20	f	PSYC4802-20142	1.0	Block	exp	55	20140425.115335	same	20	same	1	4824
EMT	72	20	f	PSYC4802-20142	1.0	Block	exp	56	20140425.115342	diff	20	same	0	9505
EMT	72	20	f	PSYC4802-20142	1.0	Block	exp	57	20140425.115353	same	60	same	1	4560
EMT	72	20	f	PSYC4802-20142	1.0	Block	exp	58	20140425.115400	diff	60	same	0	6189
EMT	72	20	f	PSYC4802-20142	1.0	Block	exp	59	20140425.115408	same	20	same	1	3329
EMT	72	20	f	PSYC4802-20142	1.0	Block	exp	60	20140425.115414	same	100	same	1	4694
EMT	72	20	f	PSYC4802-20142	1.0	Block	exp	61	20140425.115420	diff	100	diff	1	4079
EMT	72	20	f	PSYC4802-20142	1.0	Block	exp	62	20140425.115426	diff	100	same	0	3212
EMT	72	20	f	PSYC4802-20142	1.0	Block	exp	63	20140425.115432	same	100	same	1	12651
EMT	72	20	f	PSYC4802-20142	1.0	Block	exp	64	20140425.115446	same	60	same	1	3675
EMT	72	20	f	PSYC4802-20142	1.0	Block	exp	65	20140425.115452	same	20	same	1	3288
EMT	72	20	f	PSYC4802-20142	1.0	Block	exp	66	20140425.115457	same	100	same	1	5163
EMT	72	20	f	PSYC4802-20142	1.0	Block	exp	67	20140425.115505	same	20	same	1	3119
EMT	72	20	f	PSYC4802-20142	1.0	Block	exp	68	20140425.115510	same	60	same	1	3605
EMT	72	20	f	PSYC4802-20142	1.0	Block	exp	69	20140425.115515	same	20	same	1	2504
EMT	72	20	f	PSYC4802-20142	1.0	Block	exp	70	20140425.115520	same	20	same	1	2227
EMT	72	20	f	PSYC4802-20142	1.0	Block	exp	71	20140425.115524	diff	20	same	0	6740
EMT	72	20	f	PSYC4802-20142	1.0	Block	exp	72	20140425.115533	same	100	same	1	6652
EMT	72	20	f	PSYC4802-20142	1.0	Block	exp	73	20140425.115542	same	60	diff	0	5908
EMT	72	20	f	PSYC4802-20142	1.0	Block	exp	74	20140425.115550	diff	60	diff	1	6611
EMT	72	20	f	PSYC4802-20142	1.0	Block	exp	75	20140425.115558	diff	20	same	0	6645
EMT	72	20	f	PSYC4802-20142	1.0	Block	exp	76	20140425.115607	same	60	same	1	3394
EMT	72	20	f	PSYC4802-20142	1.0	Block	exp	77	20140425.115612	diff	20	same	0	5673
EMT	72	20	f	PSYC4802-20142	1.0	Block	exp	78	20140425.115620	diff	20	diff	1	4706
EMT	72	20	f	PSYC4802-20142	1.0	Block	exp	79	20140425.115627	same	100	same	1	5772
EMT	72	20	f	PSYC4802-20142	1.0	Block	exp	80	20140425.115635	same	60	diff	0	9230
EMT	72	20	f	PSYC4802-20142	1.0	Block	exp	81	20140425.115646	same	100	diff	0	4864
EMT	72	20	f	PSYC4802-20142	1.0	Block	exp	82	20140425.115653	diff	20	same	0	6440
EMT	72	20	f	PSYC4802-20142	1.0	Block	exp	83	20140425.115701	diff	100	13	-3	1
EMT	72	20	f	PSYC4802-20142	1.0	Block	exp	84	20140425.115703	same	100	diff	0	5480
EMT	72	20	f	PSYC4802-20142	1.0	Block	exp	85	20140425.115711	diff	60	diff	1	7437
EMT	72	20	f	PSYC4802-20142	1.0	Block	exp	86	20140425.115720	diff	100	diff	1	4009
EMT	72	20	f	PSYC4802-20142	1.0	Block	exp	87	20140425.115726	diff	60	diff	1	4155
EMT	72	20	f	PSYC4802-20142	1.0	Block	exp	88	20140425.115732	diff	60	diff	1	4366
EMT	72	20	f	PSYC4802-20142	1.0	Block	exp	89	20140425.115738	diff	60	diff	1	10683
EMT	72	20	f	PSYC4802-20142	1.0	Block	exp	90	20140425.115751	same	60	same	1	4138
EMT	72	20	f	PSYC4802-20142	1.0	Block	exp	91	20140425.115757	same	60	same	1	3880
EMT	72	20	f	PSYC4802-20142	1.0	Block	exp	92	20140425.115803	same	100	same	1	5620
EMT	72	20	f	PSYC4802-20142	1.0	Block	exp	93	20140425.115811	diff	60	diff	1	4219
EMT	72	20	f	PSYC4802-20142	1.0	Block	exp	94	20140425.115817	diff	60	diff	1	4196
EMT	72	20	f	PSYC4802-20142	1.0	Block	exp	95	20140425.115823	same	20	same	1	3693
EMT	72	20	f	PSYC4802-20142	1.0	Block	exp	96	20140425.115829	diff	60	diff	1	5187
EMT	72	20	f	PSYC4802-20142	1.0	Block	exp	97	20140425.115836	same	100	diff	0	3200
EMT	72	20	f	PSYC4802-20142	1.0	Block	exp	98	20140425.115841	diff	100	diff	1	3658
EMT	72	20	f	PSYC4802-20142	1.0	Block	exp	99	20140425.115847	diff	20	diff	1	7208
EMT	72	20	f	PSYC4802-20142	1.0	Block	exp	100	20140425.115856	same	60	same	1	4096
EMT	72	20	f	PSYC4802-20142	1.0	Block	exp	101	20140425.115905	same	20	same	1	3440
EMT	72	20	f	PSYC4802-20142	1.0	Block	exp	102	20140425.115910	diff	20	diff	1	2843
EMT	72	20	f	PSYC4802-20142	1.0	Block	exp	103	20140425.115915	diff	60	diff	1	3400
EMT	72	20	f	PSYC4802-20142	1.0	Block	exp	104	20140425.115920	same	100	same	1	3622
EMT	72	20	f	PSYC4802-20142	1.0	Block	exp	105	20140425.115926	same	100	same	1	4302
EMT	72	20	f	PSYC4802-20142	1.0	Block	exp	106	20140425.115932	same	60	diff	0	5515
EMT	72	20	f	PSYC4802-20142	1.0	Block	exp	107	20140425.115940	diff	60	diff	1	2861
EMT	72	20	f	PSYC4802-20142	1.0	Block	exp	108	20140425.115945	same	20	same	1	2304
EMT	72	20	f	PSYC4802-20142	1.0	Block	exp	109	20140425.115949	diff	20	diff	1	2246
EMT	72	20	f	PSYC4802-20142	1.0	Block	exp	110	20140425.115953	diff	100	same	0	5480
EMT	72	20	f	PSYC4802-20142	1.0	Block	exp	111	20140425.120001	same	100	same	1	3516
EMT	72	20	f	PSYC4802-20142	1.0	Block	exp	112	20140425.120006	diff	20	diff	1	5708
EMT	72	20	f	PSYC4802-20142	1.0	Block	exp	113	20140425.120014	diff	100	diff	1	2111
EMT	72	20	f	PSYC4802-20142	1.0	Block	exp	114	20140425.120018	same	20	same	1	3488
EMT	72	20	f	PSYC4802-20142	1.0	Block	exp	115	20140425.120024	diff	60	same	0	4713
EMT	72	20	f	PSYC4802-20142	1.0	Block	exp	116	20140425.120030	diff	60	diff	1	5784
EMT	72	20	f	PSYC4802-20142	1.0	Block	exp	117	20140425.120038	diff	60	same	0	5133
EMT	72	20	f	PSYC4802-20142	1.0	Block	exp	118	20140425.120045	diff	100	diff	1	3007
EMT	72	20	f	PSYC4802-20142	1.0	Block	exp	119	20140425.120050	diff	100	same	0	3288
EMT	72	20	f	PSYC4802-20142	1.0	Block	exp	120	20140425.120056	diff	20	diff	1	4102
EMT	72	20	f	PSYC4802-20142	1.0	Block	exp	121	20140425.120102	diff	100	diff	1	6200
EMT	72	20	f	PSYC4802-20142	1.0	Block	exp	122	20140425.120110	diff	20	diff	1	2744
EMT	72	20	f	PSYC4802-20142	1.0	Block	exp	123	20140425.120115	same	20	same	1	3130
EMT	72	20	f	PSYC4802-20142	1.0	Block	exp	124	20140425.120120	same	100	diff	0	7284
EMT	72	20	f	PSYC4802-20142	1.0	Block	exp	125	20140425.120129	same	20	160	-3	3312
EMT	72	20	f	PSYC4802-20142	1.0	Block	exp	126	20140425.120134	same	20	same	1	1864
EMT	72	20	f	PSYC4802-20142	1.0	Block	exp	127	20140425.120138	same	60	multi	-2	2503
EMT	72	20	f	PSYC4802-20142	1.0	Block	exp	128	20140425.120143	same	20	same	1	1343
EMT	72	20	f	PSYC4802-20142	1.0	Block	exp	129	20140425.120146	diff	60	diff	1	3487
EMT	72	20	f	PSYC4802-20142	1.0	Block	exp	130	20140425.120151	same	20	same	1	2550
EMT	72	20	f	PSYC4802-20142	1.0	Block	exp	131	20140425.120156	diff	100	diff	1	5796
EMT	72	20	f	PSYC4802-20142	1.0	Block	exp	132	20140425.120204	same	20	same	1	2977
EMT	72	20	f	PSYC4802-20142	1.0	Block	exp	133	20140425.120209	diff	60	diff	1	2720
EMT	72	20	f	PSYC4802-20142	1.0	Block	exp	134	20140425.120213	diff	100	diff	1	4178
EMT	72	20	f	PSYC4802-20142	1.0	Block	exp	135	20140425.120220	diff	20	diff	1	2509
EMT	72	20	f	PSYC4802-20142	1.0	Block	exp	136	20140425.120224	same	20	same	1	3165
EMT	72	20	f	PSYC4802-20142	1.0	Block	exp	137	20140425.120229	diff	60	diff	1	3569
EMT	72	20	f	PSYC4802-20142	1.0	Block	exp	138	20140425.120235	same	20	same	1	2480
EMT	72	20	f	PSYC4802-20142	1.0	Block	exp	139	20140425.120239	diff	60	diff	1	3563
EMT	72	20	f	PSYC4802-20142	1.0	Block	exp	140	20140425.120245	diff	20	190	-3	5879
EMT	72	20	f	PSYC4802-20142	1.0	Block	exp	141	20140425.120253	diff	20	diff	1	1044
EMT	72	20	f	PSYC4802-20142	1.0	Block	exp	142	20140425.120256	same	100	same	1	6973
EMT	72	20	f	PSYC4802-20142	1.0	Block	exp	143	20140425.120305	diff	100	diff	1	3365
EMT	72	20	f	PSYC4802-20142	1.0	Block	exp	144	20140425.120310	same	100	same	1	3938
EMT	72	20	f	PSYC4802-20142	1.0	Block	exp	145	20140425.120316	diff	60	diff	1	3511
EMT	72	20	f	PSYC4802-20142	1.0	Block	exp	146	20140425.120321	diff	60	diff	1	3271
EMT	72	20	f	PSYC4802-20142	1.0	Block	exp	147	20140425.120327	same	100	same	1	4097
EMT	72	20	f	PSYC4802-20142	1.0	Block	exp	148	20140425.120333	diff	100	diff	1	4870
EMT	72	20	f	PSYC4802-20142	1.0	Block	exp	149	20140425.120340	diff	20	diff	1	7056
EMT	72	20	f	PSYC4802-20142	1.0	Block	exp	150	20140425.120349	diff	100	same	0	3429
