Experimenter	Subject	Age	Sex	Experiment	Version	Block	TrialType	Trial	Timestamp	SameDiff	Rotation	Response	Acc	RT
SH	247	22	F	PSYC4802-20144	1.0.1	Block	practice	1	20141020.105200	diff	60	same	0	22763
SH	247	22	F	PSYC4802-20144	1.0.1	Block	practice	2	20141020.105225	diff	100	same	0	9522
SH	247	22	F	PSYC4802-20144	1.0.1	Block	practice	3	20141020.105236	diff	20	same	0	1456
SH	247	22	F	PSYC4802-20144	1.0.1	Block	practice	4	20141020.105240	diff	60	same	0	2936
SH	247	22	F	PSYC4802-20144	1.0.1	Block	practice	5	20141020.105245	same	20	diff	0	2087
SH	247	22	F	PSYC4802-20144	1.0.1	Block	practice	6	20141020.105249	diff	20	same	0	3026
SH	247	22	F	PSYC4802-20144	1.0.1	Block	practice	7	20141020.105254	diff	100	diff	1	2681
SH	247	22	F	PSYC4802-20144	1.0.1	Block	practice	8	20141020.105259	same	100	same	1	3176
SH	247	22	F	PSYC4802-20144	1.0.1	Block	practice	9	20141020.105304	diff	100	diff	1	3586
SH	247	22	F	PSYC4802-20144	1.0.1	Block	practice	10	20141020.105309	same	20	same	1	2977
SH	247	22	F	PSYC4802-20144	1.0.1	Block	practice	11	20141020.105314	diff	20	same	0	3237
SH	247	22	F	PSYC4802-20144	1.0.1	Block	practice	12	20141020.105320	diff	60	same	0	5276
SH	247	22	F	PSYC4802-20144	1.0.1	Block	practice	13	20141020.105327	same	20	same	1	4482
SH	247	22	F	PSYC4802-20144	1.0.1	Block	practice	14	20141020.105333	same	60	same	1	3876
SH	247	22	F	PSYC4802-20144	1.0.1	Block	practice	15	20141020.105339	diff	100	same	0	3846
SH	247	22	F	PSYC4802-20144	1.0.1	Block	practice	16	20141020.105345	same	100	same	1	2571
SH	247	22	F	PSYC4802-20144	1.0.1	Block	practice	17	20141020.105350	diff	60	same	0	3396
SH	247	22	F	PSYC4802-20144	1.0.1	Block	practice	18	20141020.105355	same	20	same	1	2186
SH	247	22	F	PSYC4802-20144	1.0.1	Block	practice	19	20141020.105359	diff	100	same	0	3337
SH	247	22	F	PSYC4802-20144	1.0.1	Block	practice	20	20141020.105405	diff	20	same	0	3636
SH	247	22	F	PSYC4802-20144	1.0.1	Block	practice	21	20141020.105410	same	20	same	1	5847
SH	247	22	F	PSYC4802-20144	1.0.1	Block	practice	22	20141020.105418	same	60	diff	0	1862
SH	247	22	F	PSYC4802-20144	1.0.1	Block	practice	23	20141020.105422	same	60	same	1	3566
SH	247	22	F	PSYC4802-20144	1.0.1	Block	practice	24	20141020.105427	same	60	same	1	3061
SH	247	22	F	PSYC4802-20144	1.0.1	Block	practice	25	20141020.105433	same	100	same	1	2756
SH	247	22	F	PSYC4802-20144	1.0.1	Block	practice	26	20141020.105437	same	60	same	1	2926
SH	247	22	F	PSYC4802-20144	1.0.1	Block	practice	27	20141020.105442	diff	20	same	0	2151
SH	247	22	F	PSYC4802-20144	1.0.1	Block	practice	28	20141020.105446	diff	60	same	0	3562
SH	247	22	F	PSYC4802-20144	1.0.1	Block	practice	29	20141020.105452	same	100	same	1	1536
SH	247	22	F	PSYC4802-20144	1.0.1	Block	practice	30	20141020.105455	same	100	same	1	4553
SH	247	22	F	PSYC4802-20144	1.0.1	Block	exp	31	20141020.105502	same	100	same	1	2352
SH	247	22	F	PSYC4802-20144	1.0.1	Block	exp	32	20141020.105506	diff	20	same	0	2346
SH	247	22	F	PSYC4802-20144	1.0.1	Block	exp	33	20141020.105511	same	100	same	1	4037
SH	247	22	F	PSYC4802-20144	1.0.1	Block	exp	34	20141020.105517	diff	100	same	0	4432
SH	247	22	F	PSYC4802-20144	1.0.1	Block	exp	35	20141020.105523	diff	20	same	0	4241
SH	247	22	F	PSYC4802-20144	1.0.1	Block	exp	36	20141020.105529	same	20	same	1	2181
SH	247	22	F	PSYC4802-20144	1.0.1	Block	exp	37	20141020.105533	same	100	diff	0	2686
SH	247	22	F	PSYC4802-20144	1.0.1	Block	exp	38	20141020.105538	diff	60	same	0	2086
SH	247	22	F	PSYC4802-20144	1.0.1	Block	exp	39	20141020.105542	same	60	same	1	7013
SH	247	22	F	PSYC4802-20144	1.0.1	Block	exp	40	20141020.105551	same	60	same	1	3697
SH	247	22	F	PSYC4802-20144	1.0.1	Block	exp	41	20141020.105557	same	20	same	1	3636
SH	247	22	F	PSYC4802-20144	1.0.1	Block	exp	42	20141020.105603	same	60	same	1	2856
SH	247	22	F	PSYC4802-20144	1.0.1	Block	exp	43	20141020.105607	diff	20	same	0	3911
SH	247	22	F	PSYC4802-20144	1.0.1	Block	exp	44	20141020.105613	same	100	same	1	6426
SH	247	22	F	PSYC4802-20144	1.0.1	Block	exp	45	20141020.105622	same	100	same	1	4282
SH	247	22	F	PSYC4802-20144	1.0.1	Block	exp	46	20141020.105628	diff	60	same	0	4016
SH	247	22	F	PSYC4802-20144	1.0.1	Block	exp	47	20141020.105634	same	60	same	1	7156
SH	247	22	F	PSYC4802-20144	1.0.1	Block	exp	48	20141020.105643	diff	100	same	0	4556
SH	247	22	F	PSYC4802-20144	1.0.1	Block	exp	49	20141020.105650	diff	60	diff	1	5131
SH	247	22	F	PSYC4802-20144	1.0.1	Block	exp	50	20141020.105657	diff	60	same	0	2951
SH	247	22	F	PSYC4802-20144	1.0.1	Block	exp	51	20141020.105708	same	100	same	1	3747
SH	247	22	F	PSYC4802-20144	1.0.1	Block	exp	52	20141020.105714	same	20	same	1	2596
SH	247	22	F	PSYC4802-20144	1.0.1	Block	exp	53	20141020.105718	same	60	same	1	3146
SH	247	22	F	PSYC4802-20144	1.0.1	Block	exp	54	20141020.105724	diff	100	same	0	3561
SH	247	22	F	PSYC4802-20144	1.0.1	Block	exp	55	20141020.105729	diff	20	same	0	4287
SH	247	22	F	PSYC4802-20144	1.0.1	Block	exp	56	20141020.105735	same	60	diff	0	2461
SH	247	22	F	PSYC4802-20144	1.0.1	Block	exp	57	20141020.105740	diff	100	same	0	4537
SH	247	22	F	PSYC4802-20144	1.0.1	Block	exp	58	20141020.105747	diff	60	same	0	5788
SH	247	22	F	PSYC4802-20144	1.0.1	Block	exp	59	20141020.105754	same	100	diff	0	4091
SH	247	22	F	PSYC4802-20144	1.0.1	Block	exp	60	20141020.105801	diff	100	diff	1	6003
SH	247	22	F	PSYC4802-20144	1.0.1	Block	exp	61	20141020.105809	diff	20	diff	1	5912
SH	247	22	F	PSYC4802-20144	1.0.1	Block	exp	62	20141020.105817	diff	100	diff	1	4066
SH	247	22	F	PSYC4802-20144	1.0.1	Block	exp	63	20141020.105823	diff	20	same	0	5421
SH	247	22	F	PSYC4802-20144	1.0.1	Block	exp	64	20141020.105830	diff	20	diff	1	4752
SH	247	22	F	PSYC4802-20144	1.0.1	Block	exp	65	20141020.105837	diff	60	same	0	5136
SH	247	22	F	PSYC4802-20144	1.0.1	Block	exp	66	20141020.105844	same	100	same	1	4052
SH	247	22	F	PSYC4802-20144	1.0.1	Block	exp	67	20141020.105850	same	20	same	1	5166
SH	247	22	F	PSYC4802-20144	1.0.1	Block	exp	68	20141020.105858	same	60	same	1	2691
SH	247	22	F	PSYC4802-20144	1.0.1	Block	exp	69	20141020.105902	same	100	diff	0	4451
SH	247	22	F	PSYC4802-20144	1.0.1	Block	exp	70	20141020.105909	diff	100	same	0	3107
SH	247	22	F	PSYC4802-20144	1.0.1	Block	exp	71	20141020.105914	diff	20	same	0	4042
SH	247	22	F	PSYC4802-20144	1.0.1	Block	exp	72	20141020.105920	same	100	same	1	3362
SH	247	22	F	PSYC4802-20144	1.0.1	Block	exp	73	20141020.105926	same	100	diff	0	2876
SH	247	22	F	PSYC4802-20144	1.0.1	Block	exp	74	20141020.105930	same	20	same	1	3381
SH	247	22	F	PSYC4802-20144	1.0.1	Block	exp	75	20141020.105936	same	20	same	1	3201
SH	247	22	F	PSYC4802-20144	1.0.1	Block	exp	76	20141020.105941	same	100	same	1	4167
SH	247	22	F	PSYC4802-20144	1.0.1	Block	exp	77	20141020.105947	diff	60	same	0	6696
SH	247	22	F	PSYC4802-20144	1.0.1	Block	exp	78	20141020.105956	same	60	same	1	4686
SH	247	22	F	PSYC4802-20144	1.0.1	Block	exp	79	20141020.110003	same	60	same	1	4471
SH	247	22	F	PSYC4802-20144	1.0.1	Block	exp	80	20141020.110009	same	100	same	1	6311
SH	247	22	F	PSYC4802-20144	1.0.1	Block	exp	81	20141020.110018	diff	60	diff	1	5216
SH	247	22	F	PSYC4802-20144	1.0.1	Block	exp	82	20141020.110025	same	100	same	1	8532
SH	247	22	F	PSYC4802-20144	1.0.1	Block	exp	83	20141020.110036	diff	100	diff	1	4191
SH	247	22	F	PSYC4802-20144	1.0.1	Block	exp	84	20141020.110042	same	100	same	1	4587
SH	247	22	F	PSYC4802-20144	1.0.1	Block	exp	85	20141020.110049	diff	100	same	0	3116
SH	247	22	F	PSYC4802-20144	1.0.1	Block	exp	86	20141020.110054	same	60	same	1	6112
SH	247	22	F	PSYC4802-20144	1.0.1	Block	exp	87	20141020.110102	same	60	same	1	3956
SH	247	22	F	PSYC4802-20144	1.0.1	Block	exp	88	20141020.110108	same	20	same	1	2976
SH	247	22	F	PSYC4802-20144	1.0.1	Block	exp	89	20141020.110113	diff	60	same	0	2311
SH	247	22	F	PSYC4802-20144	1.0.1	Block	exp	90	20141020.110117	same	20	same	1	4248
SH	247	22	F	PSYC4802-20144	1.0.1	Block	exp	91	20141020.110124	same	20	same	1	3447
SH	247	22	F	PSYC4802-20144	1.0.1	Block	exp	92	20141020.110129	diff	100	diff	1	4176
SH	247	22	F	PSYC4802-20144	1.0.1	Block	exp	93	20141020.110136	same	60	same	1	3962
SH	247	22	F	PSYC4802-20144	1.0.1	Block	exp	94	20141020.110142	same	20	same	1	3587
SH	247	22	F	PSYC4802-20144	1.0.1	Block	exp	95	20141020.110147	same	60	same	1	5791
SH	247	22	F	PSYC4802-20144	1.0.1	Block	exp	96	20141020.110155	same	100	diff	0	7791
SH	247	22	F	PSYC4802-20144	1.0.1	Block	exp	97	20141020.110205	diff	100	same	0	3856
SH	247	22	F	PSYC4802-20144	1.0.1	Block	exp	98	20141020.110211	diff	20	same	0	10927
SH	247	22	F	PSYC4802-20144	1.0.1	Block	exp	99	20141020.110224	same	60	same	1	3656
SH	247	22	F	PSYC4802-20144	1.0.1	Block	exp	100	20141020.110230	same	20	same	1	3756
SH	247	22	F	PSYC4802-20144	1.0.1	Block	exp	101	20141020.110250	diff	20	diff	1	5822
SH	247	22	F	PSYC4802-20144	1.0.1	Block	exp	102	20141020.110258	diff	60	diff	1	4532
SH	247	22	F	PSYC4802-20144	1.0.1	Block	exp	103	20141020.110305	diff	20	same	0	2266
SH	247	22	F	PSYC4802-20144	1.0.1	Block	exp	104	20141020.110309	diff	60	diff	1	3001
SH	247	22	F	PSYC4802-20144	1.0.1	Block	exp	105	20141020.110314	diff	20	same	0	3746
SH	247	22	F	PSYC4802-20144	1.0.1	Block	exp	106	20141020.110320	diff	100	same	0	4731
SH	247	22	F	PSYC4802-20144	1.0.1	Block	exp	107	20141020.110327	diff	20	same	0	4261
SH	247	22	F	PSYC4802-20144	1.0.1	Block	exp	108	20141020.110333	diff	60	same	0	3622
SH	247	22	F	PSYC4802-20144	1.0.1	Block	exp	109	20141020.110339	same	60	same	1	5772
SH	247	22	F	PSYC4802-20144	1.0.1	Block	exp	110	20141020.110347	diff	100	diff	1	5497
SH	247	22	F	PSYC4802-20144	1.0.1	Block	exp	111	20141020.110354	same	20	same	1	5311
SH	247	22	F	PSYC4802-20144	1.0.1	Block	exp	112	20141020.110402	same	20	same	1	4877
SH	247	22	F	PSYC4802-20144	1.0.1	Block	exp	113	20141020.110408	diff	60	same	0	4267
SH	247	22	F	PSYC4802-20144	1.0.1	Block	exp	114	20141020.110415	diff	60	same	0	5523
SH	247	22	F	PSYC4802-20144	1.0.1	Block	exp	115	20141020.110422	diff	20	diff	1	3687
SH	247	22	F	PSYC4802-20144	1.0.1	Block	exp	116	20141020.110428	same	20	same	1	4931
SH	247	22	F	PSYC4802-20144	1.0.1	Block	exp	117	20141020.110435	same	20	same	1	3656
SH	247	22	F	PSYC4802-20144	1.0.1	Block	exp	118	20141020.110441	same	100	same	1	4586
SH	247	22	F	PSYC4802-20144	1.0.1	Block	exp	119	20141020.110447	diff	100	diff	1	7127
SH	247	22	F	PSYC4802-20144	1.0.1	Block	exp	120	20141020.110457	same	60	same	1	5588
SH	247	22	F	PSYC4802-20144	1.0.1	Block	exp	121	20141020.110504	diff	100	same	0	3717
SH	247	22	F	PSYC4802-20144	1.0.1	Block	exp	122	20141020.110510	same	60	same	1	4236
SH	247	22	F	PSYC4802-20144	1.0.1	Block	exp	123	20141020.110516	same	100	same	1	7512
SH	247	22	F	PSYC4802-20144	1.0.1	Block	exp	124	20141020.110526	same	20	same	1	3262
SH	247	22	F	PSYC4802-20144	1.0.1	Block	exp	125	20141020.110531	same	20	same	1	2521
SH	247	22	F	PSYC4802-20144	1.0.1	Block	exp	126	20141020.110536	same	20	same	1	2061
SH	247	22	F	PSYC4802-20144	1.0.1	Block	exp	127	20141020.110540	diff	60	same	0	2126
SH	247	22	F	PSYC4802-20144	1.0.1	Block	exp	128	20141020.110544	same	60	same	1	4812
SH	247	22	F	PSYC4802-20144	1.0.1	Block	exp	129	20141020.110551	diff	60	same	0	4901
SH	247	22	F	PSYC4802-20144	1.0.1	Block	exp	130	20141020.110558	same	100	same	1	2666
SH	247	22	F	PSYC4802-20144	1.0.1	Block	exp	131	20141020.110603	same	20	same	1	3487
SH	247	22	F	PSYC4802-20144	1.0.1	Block	exp	132	20141020.110608	diff	20	same	0	5641
SH	247	22	F	PSYC4802-20144	1.0.1	Block	exp	133	20141020.110616	same	60	same	1	3261
SH	247	22	F	PSYC4802-20144	1.0.1	Block	exp	134	20141020.110621	diff	20	same	0	2233
SH	247	22	F	PSYC4802-20144	1.0.1	Block	exp	135	20141020.110626	diff	100	same	0	3746
SH	247	22	F	PSYC4802-20144	1.0.1	Block	exp	136	20141020.110631	diff	100	same	0	2411
SH	247	22	F	PSYC4802-20144	1.0.1	Block	exp	137	20141020.110636	diff	100	diff	1	6392
SH	247	22	F	PSYC4802-20144	1.0.1	Block	exp	138	20141020.110644	diff	60	same	0	7761
SH	247	22	F	PSYC4802-20144	1.0.1	Block	exp	139	20141020.110654	diff	60	same	0	4546
SH	247	22	F	PSYC4802-20144	1.0.1	Block	exp	140	20141020.110701	diff	100	same	0	2742
SH	247	22	F	PSYC4802-20144	1.0.1	Block	exp	141	20141020.110705	diff	60	diff	1	8412
SH	247	22	F	PSYC4802-20144	1.0.1	Block	exp	142	20141020.110716	diff	20	same	0	4511
SH	247	22	F	PSYC4802-20144	1.0.1	Block	exp	143	20141020.110723	diff	100	diff	1	6301
SH	247	22	F	PSYC4802-20144	1.0.1	Block	exp	144	20141020.110731	diff	20	diff	1	14284
SH	247	22	F	PSYC4802-20144	1.0.1	Block	exp	145	20141020.110747	same	100	diff	0	4081
SH	247	22	F	PSYC4802-20144	1.0.1	Block	exp	146	20141020.110754	diff	60	same	0	2807
SH	247	22	F	PSYC4802-20144	1.0.1	Block	exp	147	20141020.110758	diff	20	diff	1	6571
SH	247	22	F	PSYC4802-20144	1.0.1	Block	exp	148	20141020.110807	same	60	diff	0	7972
SH	247	22	F	PSYC4802-20144	1.0.1	Block	exp	149	20141020.110817	same	20	same	1	4126
SH	247	22	F	PSYC4802-20144	1.0.1	Block	exp	150	20141020.110823	diff	20	same	0	7906
