Experimenter	Subject	Age	Sex	Experiment	Version	Block	TrialType	Trial	Timestamp	SameDiff	Rotation	Response	Acc	RT
jm	150	19	m	PSYC4802-20142	1.0	Block	practice	1	20140507.114412	same	20	same	1	8744
jm	150	19	m	PSYC4802-20142	1.0	Block	practice	2	20140507.114423	same	100	same	1	7039
jm	150	19	m	PSYC4802-20142	1.0	Block	practice	3	20140507.114432	diff	60	diff	1	7472
jm	150	19	m	PSYC4802-20142	1.0	Block	practice	4	20140507.114441	same	20	same	1	4044
jm	150	19	m	PSYC4802-20142	1.0	Block	practice	5	20140507.114447	same	60	same	1	5556
jm	150	19	m	PSYC4802-20142	1.0	Block	practice	6	20140507.114455	diff	60	diff	1	10963
jm	150	19	m	PSYC4802-20142	1.0	Block	practice	7	20140507.114508	same	60	same	1	5614
jm	150	19	m	PSYC4802-20142	1.0	Block	practice	8	20140507.114515	diff	60	diff	1	9769
jm	150	19	m	PSYC4802-20142	1.0	Block	practice	9	20140507.114527	diff	60	diff	1	13466
jm	150	19	m	PSYC4802-20142	1.0	Block	practice	10	20140507.114542	diff	100	diff	1	9558
jm	150	19	m	PSYC4802-20142	1.0	Block	practice	11	20140507.114554	same	100	same	1	13442
jm	150	19	m	PSYC4802-20142	1.0	Block	practice	12	20140507.114609	same	20	same	1	3915
jm	150	19	m	PSYC4802-20142	1.0	Block	practice	13	20140507.114615	diff	20	diff	1	7818
jm	150	19	m	PSYC4802-20142	1.0	Block	practice	14	20140507.114625	same	20	same	1	5181
jm	150	19	m	PSYC4802-20142	1.0	Block	practice	15	20140507.114632	diff	100	diff	1	14175
jm	150	19	m	PSYC4802-20142	1.0	Block	practice	16	20140507.114648	diff	100	diff	1	7319
jm	150	19	m	PSYC4802-20142	1.0	Block	practice	17	20140507.114658	diff	20	diff	1	6874
jm	150	19	m	PSYC4802-20142	1.0	Block	practice	18	20140507.114706	same	60	same	1	11010
jm	150	19	m	PSYC4802-20142	1.0	Block	practice	19	20140507.114719	same	100	same	1	4970
jm	150	19	m	PSYC4802-20142	1.0	Block	practice	20	20140507.114726	same	60	same	1	5983
jm	150	19	m	PSYC4802-20142	1.0	Block	practice	21	20140507.114734	diff	20	diff	1	3042
jm	150	19	m	PSYC4802-20142	1.0	Block	practice	22	20140507.114739	diff	20	diff	1	6230
jm	150	19	m	PSYC4802-20142	1.0	Block	practice	23	20140507.114748	same	20	same	1	5022
jm	150	19	m	PSYC4802-20142	1.0	Block	practice	24	20140507.114755	diff	20	diff	1	6376
jm	150	19	m	PSYC4802-20142	1.0	Block	practice	25	20140507.114803	diff	60	diff	1	10390
jm	150	19	m	PSYC4802-20142	1.0	Block	practice	26	20140507.114815	same	100	diff	0	4642
jm	150	19	m	PSYC4802-20142	1.0	Block	practice	27	20140507.114822	same	100	diff	0	10770
jm	150	19	m	PSYC4802-20142	1.0	Block	practice	28	20140507.114835	diff	100	diff	1	10952
jm	150	19	m	PSYC4802-20142	1.0	Block	practice	29	20140507.114848	diff	100	diff	1	8034
jm	150	19	m	PSYC4802-20142	1.0	Block	practice	30	20140507.114858	same	60	same	1	4220
jm	150	19	m	PSYC4802-20142	1.0	Block	exp	31	20140507.114904	same	20	same	1	3880
jm	150	19	m	PSYC4802-20142	1.0	Block	exp	32	20140507.114910	same	100	same	1	22600
jm	150	19	m	PSYC4802-20142	1.0	Block	exp	33	20140507.114934	same	100	same	1	11023
jm	150	19	m	PSYC4802-20142	1.0	Block	exp	34	20140507.114947	diff	60	diff	1	12604
jm	150	19	m	PSYC4802-20142	1.0	Block	exp	35	20140507.115002	same	100	same	1	8562
jm	150	19	m	PSYC4802-20142	1.0	Block	exp	36	20140507.115012	diff	60	diff	1	5878
jm	150	19	m	PSYC4802-20142	1.0	Block	exp	37	20140507.115020	same	20	same	1	5515
jm	150	19	m	PSYC4802-20142	1.0	Block	exp	38	20140507.115028	same	100	same	1	8568
jm	150	19	m	PSYC4802-20142	1.0	Block	exp	39	20140507.115038	diff	60	diff	1	14691
jm	150	19	m	PSYC4802-20142	1.0	Block	exp	40	20140507.115055	diff	100	same	0	4859
jm	150	19	m	PSYC4802-20142	1.0	Block	exp	41	20140507.115102	same	60	same	1	9505
jm	150	19	m	PSYC4802-20142	1.0	Block	exp	42	20140507.115113	same	60	same	1	6646
jm	150	19	m	PSYC4802-20142	1.0	Block	exp	43	20140507.115122	diff	20	diff	1	6388
jm	150	19	m	PSYC4802-20142	1.0	Block	exp	44	20140507.115130	diff	100	diff	1	4080
jm	150	19	m	PSYC4802-20142	1.0	Block	exp	45	20140507.115137	same	60	same	1	3903
jm	150	19	m	PSYC4802-20142	1.0	Block	exp	46	20140507.115142	diff	20	diff	1	8146
jm	150	19	m	PSYC4802-20142	1.0	Block	exp	47	20140507.115153	diff	20	diff	1	6065
jm	150	19	m	PSYC4802-20142	1.0	Block	exp	48	20140507.115201	same	100	same	1	7770
jm	150	19	m	PSYC4802-20142	1.0	Block	exp	49	20140507.115210	same	60	same	1	3806
jm	150	19	m	PSYC4802-20142	1.0	Block	exp	50	20140507.115216	same	20	same	1	6511
jm	150	19	m	PSYC4802-20142	1.0	Block	exp	51	20140507.115356	same	20	same	1	4624
jm	150	19	m	PSYC4802-20142	1.0	Block	exp	52	20140507.115402	diff	20	diff	1	8092
jm	150	19	m	PSYC4802-20142	1.0	Block	exp	53	20140507.115412	same	60	same	1	4935
jm	150	19	m	PSYC4802-20142	1.0	Block	exp	54	20140507.115419	same	60	same	1	5303
jm	150	19	m	PSYC4802-20142	1.0	Block	exp	55	20140507.115427	same	20	same	1	3270
jm	150	19	m	PSYC4802-20142	1.0	Block	exp	56	20140507.115432	same	60	same	1	5087
jm	150	19	m	PSYC4802-20142	1.0	Block	exp	57	20140507.115439	same	20	same	1	3482
jm	150	19	m	PSYC4802-20142	1.0	Block	exp	58	20140507.115444	diff	60	diff	1	6669
jm	150	19	m	PSYC4802-20142	1.0	Block	exp	59	20140507.115453	diff	100	diff	1	8650
jm	150	19	m	PSYC4802-20142	1.0	Block	exp	60	20140507.115504	diff	100	diff	1	6283
jm	150	19	m	PSYC4802-20142	1.0	Block	exp	61	20140507.115512	diff	100	diff	1	6698
jm	150	19	m	PSYC4802-20142	1.0	Block	exp	62	20140507.115520	diff	60	diff	1	8456
jm	150	19	m	PSYC4802-20142	1.0	Block	exp	63	20140507.115531	diff	100	diff	1	5158
jm	150	19	m	PSYC4802-20142	1.0	Block	exp	64	20140507.115538	same	100	same	1	5093
jm	150	19	m	PSYC4802-20142	1.0	Block	exp	65	20140507.115545	same	20	same	1	3236
jm	150	19	m	PSYC4802-20142	1.0	Block	exp	66	20140507.115550	diff	60	same	0	4284
jm	150	19	m	PSYC4802-20142	1.0	Block	exp	67	20140507.115557	diff	100	diff	1	8099
jm	150	19	m	PSYC4802-20142	1.0	Block	exp	68	20140507.115607	same	100	same	1	8532
jm	150	19	m	PSYC4802-20142	1.0	Block	exp	69	20140507.115617	diff	100	diff	1	5860
jm	150	19	m	PSYC4802-20142	1.0	Block	exp	70	20140507.115625	diff	60	diff	1	7009
jm	150	19	m	PSYC4802-20142	1.0	Block	exp	71	20140507.115634	same	60	same	1	5034
jm	150	19	m	PSYC4802-20142	1.0	Block	exp	72	20140507.115641	same	60	same	1	4103
jm	150	19	m	PSYC4802-20142	1.0	Block	exp	73	20140507.115647	diff	100	diff	1	5610
jm	150	19	m	PSYC4802-20142	1.0	Block	exp	74	20140507.115655	same	100	same	1	8333
jm	150	19	m	PSYC4802-20142	1.0	Block	exp	75	20140507.115705	same	20	same	1	3587
jm	150	19	m	PSYC4802-20142	1.0	Block	exp	76	20140507.115711	diff	60	same	0	5849
jm	150	19	m	PSYC4802-20142	1.0	Block	exp	77	20140507.115718	diff	20	diff	1	6946
jm	150	19	m	PSYC4802-20142	1.0	Block	exp	78	20140507.115727	same	60	same	1	3733
jm	150	19	m	PSYC4802-20142	1.0	Block	exp	79	20140507.115733	same	100	same	1	7981
jm	150	19	m	PSYC4802-20142	1.0	Block	exp	80	20140507.115743	diff	60	diff	1	6177
jm	150	19	m	PSYC4802-20142	1.0	Block	exp	81	20140507.115751	same	100	same	1	5105
jm	150	19	m	PSYC4802-20142	1.0	Block	exp	82	20140507.115758	diff	20	same	0	11345
jm	150	19	m	PSYC4802-20142	1.0	Block	exp	83	20140507.115812	same	60	same	1	8714
jm	150	19	m	PSYC4802-20142	1.0	Block	exp	84	20140507.115822	diff	60	diff	1	5092
jm	150	19	m	PSYC4802-20142	1.0	Block	exp	85	20140507.115829	diff	100	diff	1	3645
jm	150	19	m	PSYC4802-20142	1.0	Block	exp	86	20140507.115835	same	60	same	1	17720
jm	150	19	m	PSYC4802-20142	1.0	Block	exp	87	20140507.115855	diff	60	diff	1	7091
jm	150	19	m	PSYC4802-20142	1.0	Block	exp	88	20140507.115904	same	20	same	1	4999
jm	150	19	m	PSYC4802-20142	1.0	Block	exp	89	20140507.115911	diff	20	diff	1	8861
jm	150	19	m	PSYC4802-20142	1.0	Block	exp	90	20140507.115922	diff	20	diff	1	6869
jm	150	19	m	PSYC4802-20142	1.0	Block	exp	91	20140507.115930	diff	60	diff	1	4689
jm	150	19	m	PSYC4802-20142	1.0	Block	exp	92	20140507.115937	same	20	same	1	5064
jm	150	19	m	PSYC4802-20142	1.0	Block	exp	93	20140507.115944	diff	20	same	0	6241
jm	150	19	m	PSYC4802-20142	1.0	Block	exp	94	20140507.115952	diff	100	diff	1	6570
jm	150	19	m	PSYC4802-20142	1.0	Block	exp	95	20140507.120001	same	100	same	1	4038
jm	150	19	m	PSYC4802-20142	1.0	Block	exp	96	20140507.120007	diff	20	diff	1	5597
jm	150	19	m	PSYC4802-20142	1.0	Block	exp	97	20140507.120014	same	100	same	1	9423
jm	150	19	m	PSYC4802-20142	1.0	Block	exp	98	20140507.120026	same	20	same	1	4009
jm	150	19	m	PSYC4802-20142	1.0	Block	exp	99	20140507.120032	same	100	same	1	3821
jm	150	19	m	PSYC4802-20142	1.0	Block	exp	100	20140507.120038	diff	60	diff	1	9323
jm	150	19	m	PSYC4802-20142	1.0	Block	exp	101	20140507.120214	diff	60	diff	1	5158
jm	150	19	m	PSYC4802-20142	1.0	Block	exp	102	20140507.120221	same	100	diff	0	5005
jm	150	19	m	PSYC4802-20142	1.0	Block	exp	103	20140507.120228	same	20	same	1	4970
jm	150	19	m	PSYC4802-20142	1.0	Block	exp	104	20140507.120235	diff	100	diff	1	4928
jm	150	19	m	PSYC4802-20142	1.0	Block	exp	105	20140507.120242	diff	20	diff	1	4530
jm	150	19	m	PSYC4802-20142	1.0	Block	exp	106	20140507.120249	diff	100	diff	1	3974
jm	150	19	m	PSYC4802-20142	1.0	Block	exp	107	20140507.120255	diff	60	diff	1	9148
jm	150	19	m	PSYC4802-20142	1.0	Block	exp	108	20140507.120306	same	20	same	1	4026
jm	150	19	m	PSYC4802-20142	1.0	Block	exp	109	20140507.120312	same	100	same	1	7290
jm	150	19	m	PSYC4802-20142	1.0	Block	exp	110	20140507.120321	same	100	same	1	5866
jm	150	19	m	PSYC4802-20142	1.0	Block	exp	111	20140507.120329	same	20	same	1	3482
jm	150	19	m	PSYC4802-20142	1.0	Block	exp	112	20140507.120334	diff	20	diff	1	6241
jm	150	19	m	PSYC4802-20142	1.0	Block	exp	113	20140507.120343	diff	20	same	0	5058
jm	150	19	m	PSYC4802-20142	1.0	Block	exp	114	20140507.120350	diff	60	diff	1	8889
jm	150	19	m	PSYC4802-20142	1.0	Block	exp	115	20140507.120401	diff	20	same	0	9212
jm	150	19	m	PSYC4802-20142	1.0	Block	exp	116	20140507.120412	same	60	same	1	5743
jm	150	19	m	PSYC4802-20142	1.0	Block	exp	117	20140507.120419	same	60	same	1	7665
jm	150	19	m	PSYC4802-20142	1.0	Block	exp	118	20140507.120429	diff	20	same	0	7086
jm	150	19	m	PSYC4802-20142	1.0	Block	exp	119	20140507.120438	diff	60	diff	1	14005
jm	150	19	m	PSYC4802-20142	1.0	Block	exp	120	20140507.120454	diff	100	diff	1	4389
jm	150	19	m	PSYC4802-20142	1.0	Block	exp	121	20140507.120500	diff	20	diff	1	6394
jm	150	19	m	PSYC4802-20142	1.0	Block	exp	122	20140507.120509	same	20	same	1	4396
jm	150	19	m	PSYC4802-20142	1.0	Block	exp	123	20140507.120515	diff	20	diff	1	3283
jm	150	19	m	PSYC4802-20142	1.0	Block	exp	124	20140507.120521	diff	100	diff	1	7337
jm	150	19	m	PSYC4802-20142	1.0	Block	exp	125	20140507.120530	same	60	same	1	4069
jm	150	19	m	PSYC4802-20142	1.0	Block	exp	126	20140507.120536	diff	60	diff	1	6827
jm	150	19	m	PSYC4802-20142	1.0	Block	exp	127	20140507.120545	same	20	same	1	5263
jm	150	19	m	PSYC4802-20142	1.0	Block	exp	128	20140507.120552	diff	100	diff	1	4173
jm	150	19	m	PSYC4802-20142	1.0	Block	exp	129	20140507.120558	diff	100	diff	1	4882
jm	150	19	m	PSYC4802-20142	1.0	Block	exp	130	20140507.120605	same	100	same	1	7197
jm	150	19	m	PSYC4802-20142	1.0	Block	exp	131	20140507.120614	same	20	same	1	4929
jm	150	19	m	PSYC4802-20142	1.0	Block	exp	132	20140507.120621	same	60	same	1	6370
jm	150	19	m	PSYC4802-20142	1.0	Block	exp	133	20140507.120629	same	60	same	1	3628
jm	150	19	m	PSYC4802-20142	1.0	Block	exp	134	20140507.120635	same	100	same	1	4139
jm	150	19	m	PSYC4802-20142	1.0	Block	exp	135	20140507.120641	same	60	same	1	4120
jm	150	19	m	PSYC4802-20142	1.0	Block	exp	136	20140507.120647	diff	100	diff	1	5134
jm	150	19	m	PSYC4802-20142	1.0	Block	exp	137	20140507.120654	diff	20	diff	1	5966
jm	150	19	m	PSYC4802-20142	1.0	Block	exp	138	20140507.120702	same	20	same	1	3523
jm	150	19	m	PSYC4802-20142	1.0	Block	exp	139	20140507.120708	diff	100	diff	1	2234
jm	150	19	m	PSYC4802-20142	1.0	Block	exp	140	20140507.120712	diff	100	diff	1	8292
jm	150	19	m	PSYC4802-20142	1.0	Block	exp	141	20140507.120722	same	20	same	1	4372
jm	150	19	m	PSYC4802-20142	1.0	Block	exp	142	20140507.120729	diff	60	diff	1	3921
jm	150	19	m	PSYC4802-20142	1.0	Block	exp	143	20140507.120734	diff	20	diff	1	7238
jm	150	19	m	PSYC4802-20142	1.0	Block	exp	144	20140507.120744	diff	20	diff	1	10512
jm	150	19	m	PSYC4802-20142	1.0	Block	exp	145	20140507.120756	same	20	same	1	2591
jm	150	19	m	PSYC4802-20142	1.0	Block	exp	146	20140507.120801	same	100	same	1	4196
jm	150	19	m	PSYC4802-20142	1.0	Block	exp	147	20140507.120807	same	60	same	1	2884
jm	150	19	m	PSYC4802-20142	1.0	Block	exp	148	20140507.120812	diff	60	diff	1	6733
jm	150	19	m	PSYC4802-20142	1.0	Block	exp	149	20140507.120820	same	60	same	1	3013
jm	150	19	m	PSYC4802-20142	1.0	Block	exp	150	20140507.120825	same	100	same	1	5562
