Experimenter	Subject	Age	Sex	Experiment	Version	Block	TrialType	Trial	Timestamp	SameDiff	Rotation	Response	Acc	RT
TS	230	24	m	PSYC4802-20144	1.0	Block	practice	1	20141013.113902	same	20	same	1	3696
TS	230	24	m	PSYC4802-20144	1.0	Block	practice	2	20141013.113909	diff	20	diff	1	5776
TS	230	24	m	PSYC4802-20144	1.0	Block	practice	3	20141013.113916	same	60	same	1	15857
TS	230	24	m	PSYC4802-20144	1.0	Block	practice	4	20141013.113934	same	60	same	1	7497
TS	230	24	m	PSYC4802-20144	1.0	Block	practice	5	20141013.113944	same	20	same	1	3136
TS	230	24	m	PSYC4802-20144	1.0	Block	practice	6	20141013.113949	same	100	diff	0	3207
TS	230	24	m	PSYC4802-20144	1.0	Block	practice	7	20141013.113954	diff	100	same	0	6462
TS	230	24	m	PSYC4802-20144	1.0	Block	practice	8	20141013.114003	diff	60	same	0	17717
TS	230	24	m	PSYC4802-20144	1.0	Block	practice	9	20141013.114022	same	100	32	-3	1776
TS	230	24	m	PSYC4802-20144	1.0	Block	practice	10	20141013.114026	diff	20	88	-3	6371
TS	230	24	m	PSYC4802-20144	1.0	Block	practice	11	20141013.114035	diff	60	diff	1	8411
TS	230	24	m	PSYC4802-20144	1.0	Block	practice	12	20141013.114045	diff	20	same	0	6026
TS	230	24	m	PSYC4802-20144	1.0	Block	practice	13	20141013.114053	diff	60	same	0	8762
TS	230	24	m	PSYC4802-20144	1.0	Block	practice	14	20141013.114104	same	100	same	1	8031
TS	230	24	m	PSYC4802-20144	1.0	Block	practice	15	20141013.114114	diff	100	diff	1	13716
TS	230	24	m	PSYC4802-20144	1.0	Block	practice	16	20141013.114130	diff	20	diff	1	4161
TS	230	24	m	PSYC4802-20144	1.0	Block	practice	17	20141013.114136	same	20	same	1	4632
TS	230	24	m	PSYC4802-20144	1.0	Block	practice	18	20141013.114143	diff	20	diff	1	4261
TS	230	24	m	PSYC4802-20144	1.0	Block	practice	19	20141013.114149	diff	100	diff	1	7417
TS	230	24	m	PSYC4802-20144	1.0	Block	practice	20	20141013.114158	same	60	same	1	9821
TS	230	24	m	PSYC4802-20144	1.0	Block	practice	21	20141013.114210	diff	100	diff	1	9351
TS	230	24	m	PSYC4802-20144	1.0	Block	practice	22	20141013.114221	same	20	same	1	3261
TS	230	24	m	PSYC4802-20144	1.0	Block	practice	23	20141013.114227	diff	60	same	0	4386
TS	230	24	m	PSYC4802-20144	1.0	Block	practice	24	20141013.114233	same	60	diff	0	7586
TS	230	24	m	PSYC4802-20144	1.0	Block	practice	25	20141013.114243	diff	60	diff	1	12197
TS	230	24	m	PSYC4802-20144	1.0	Block	practice	26	20141013.114257	diff	100	diff	1	15413
TS	230	24	m	PSYC4802-20144	1.0	Block	practice	27	20141013.114314	same	20	same	1	5291
TS	230	24	m	PSYC4802-20144	1.0	Block	practice	28	20141013.114321	same	100	same	1	11296
TS	230	24	m	PSYC4802-20144	1.0	Block	practice	29	20141013.114335	same	100	diff	0	11592
TS	230	24	m	PSYC4802-20144	1.0	Block	practice	30	20141013.114348	same	60	same	1	11671
TS	230	24	m	PSYC4802-20144	1.0	Block	exp	31	20141013.114402	diff	60	diff	1	11717
TS	230	24	m	PSYC4802-20144	1.0	Block	exp	32	20141013.114416	same	20	same	1	4737
TS	230	24	m	PSYC4802-20144	1.0	Block	exp	33	20141013.114422	diff	60	diff	1	14747
TS	230	24	m	PSYC4802-20144	1.0	Block	exp	34	20141013.114439	same	60	diff	0	6526
TS	230	24	m	PSYC4802-20144	1.0	Block	exp	35	20141013.114448	same	60	same	1	5531
TS	230	24	m	PSYC4802-20144	1.0	Block	exp	36	20141013.114455	same	100	same	1	11161
TS	230	24	m	PSYC4802-20144	1.0	Block	exp	37	20141013.114508	diff	20	diff	1	9477
TS	230	24	m	PSYC4802-20144	1.0	Block	exp	38	20141013.114520	same	100	diff	0	6422
TS	230	24	m	PSYC4802-20144	1.0	Block	exp	39	20141013.114528	diff	100	diff	1	14351
TS	230	24	m	PSYC4802-20144	1.0	Block	exp	40	20141013.114545	diff	100	diff	1	4436
TS	230	24	m	PSYC4802-20144	1.0	Block	exp	41	20141013.114551	same	20	same	1	3351
TS	230	24	m	PSYC4802-20144	1.0	Block	exp	42	20141013.114556	diff	20	same	0	14433
TS	230	24	m	PSYC4802-20144	1.0	Block	exp	43	20141013.114613	same	100	same	1	9316
TS	230	24	m	PSYC4802-20144	1.0	Block	exp	44	20141013.114624	same	20	same	1	2916
TS	230	24	m	PSYC4802-20144	1.0	Block	exp	45	20141013.114629	same	20	same	1	4886
TS	230	24	m	PSYC4802-20144	1.0	Block	exp	46	20141013.114636	same	20	same	1	3311
TS	230	24	m	PSYC4802-20144	1.0	Block	exp	47	20141013.114641	diff	60	diff	1	5761
TS	230	24	m	PSYC4802-20144	1.0	Block	exp	48	20141013.114649	diff	100	diff	1	5906
TS	230	24	m	PSYC4802-20144	1.0	Block	exp	49	20141013.114657	same	60	same	1	4491
TS	230	24	m	PSYC4802-20144	1.0	Block	exp	50	20141013.114703	diff	60	diff	1	8757
TS	230	24	m	PSYC4802-20144	1.0	Block	exp	51	20141013.114719	same	100	diff	0	7457
TS	230	24	m	PSYC4802-20144	1.0	Block	exp	52	20141013.114728	same	100	same	1	5911
TS	230	24	m	PSYC4802-20144	1.0	Block	exp	53	20141013.114736	diff	60	diff	1	7927
TS	230	24	m	PSYC4802-20144	1.0	Block	exp	54	20141013.114746	diff	100	diff	1	6041
TS	230	24	m	PSYC4802-20144	1.0	Block	exp	55	20141013.114754	same	20	same	1	9087
TS	230	24	m	PSYC4802-20144	1.0	Block	exp	56	20141013.114805	diff	100	diff	1	4912
TS	230	24	m	PSYC4802-20144	1.0	Block	exp	57	20141013.114812	diff	60	diff	1	11271
TS	230	24	m	PSYC4802-20144	1.0	Block	exp	58	20141013.114825	same	60	same	1	9142
TS	230	24	m	PSYC4802-20144	1.0	Block	exp	59	20141013.114837	same	100	diff	0	8382
TS	230	24	m	PSYC4802-20144	1.0	Block	exp	60	20141013.114847	diff	60	diff	1	12397
TS	230	24	m	PSYC4802-20144	1.0	Block	exp	61	20141013.114901	diff	60	diff	1	6426
TS	230	24	m	PSYC4802-20144	1.0	Block	exp	62	20141013.114910	same	100	diff	0	10721
TS	230	24	m	PSYC4802-20144	1.0	Block	exp	63	20141013.114922	same	100	same	1	5277
TS	230	24	m	PSYC4802-20144	1.0	Block	exp	64	20141013.114930	same	60	same	1	8246
TS	230	24	m	PSYC4802-20144	1.0	Block	exp	65	20141013.114940	same	100	same	1	7332
TS	230	24	m	PSYC4802-20144	1.0	Block	exp	66	20141013.114949	diff	60	diff	1	7022
TS	230	24	m	PSYC4802-20144	1.0	Block	exp	67	20141013.114958	same	100	diff	0	10847
TS	230	24	m	PSYC4802-20144	1.0	Block	exp	68	20141013.115011	diff	100	diff	1	13452
TS	230	24	m	PSYC4802-20144	1.0	Block	exp	69	20141013.115027	same	100	diff	0	5336
TS	230	24	m	PSYC4802-20144	1.0	Block	exp	70	20141013.115034	same	20	same	1	5142
TS	230	24	m	PSYC4802-20144	1.0	Block	exp	71	20141013.115041	diff	20	diff	1	10692
TS	230	24	m	PSYC4802-20144	1.0	Block	exp	72	20141013.115054	diff	60	diff	1	3711
TS	230	24	m	PSYC4802-20144	1.0	Block	exp	73	20141013.115059	same	60	same	1	4786
TS	230	24	m	PSYC4802-20144	1.0	Block	exp	74	20141013.115106	diff	100	diff	1	5501
TS	230	24	m	PSYC4802-20144	1.0	Block	exp	75	20141013.115114	diff	20	diff	1	3596
TS	230	24	m	PSYC4802-20144	1.0	Block	exp	76	20141013.115119	same	60	same	1	2886
TS	230	24	m	PSYC4802-20144	1.0	Block	exp	77	20141013.115124	diff	60	same	0	6491
TS	230	24	m	PSYC4802-20144	1.0	Block	exp	78	20141013.115133	diff	100	diff	1	6687
TS	230	24	m	PSYC4802-20144	1.0	Block	exp	79	20141013.115141	same	60	same	1	5746
TS	230	24	m	PSYC4802-20144	1.0	Block	exp	80	20141013.115149	diff	60	diff	1	6161
TS	230	24	m	PSYC4802-20144	1.0	Block	exp	81	20141013.115157	diff	20	diff	1	4156
TS	230	24	m	PSYC4802-20144	1.0	Block	exp	82	20141013.115203	same	20	same	1	3196
TS	230	24	m	PSYC4802-20144	1.0	Block	exp	83	20141013.115208	diff	20	diff	1	9557
TS	230	24	m	PSYC4802-20144	1.0	Block	exp	84	20141013.115220	diff	100	diff	1	5811
TS	230	24	m	PSYC4802-20144	1.0	Block	exp	85	20141013.115228	diff	20	diff	1	4147
TS	230	24	m	PSYC4802-20144	1.0	Block	exp	86	20141013.115234	diff	20	diff	1	3056
TS	230	24	m	PSYC4802-20144	1.0	Block	exp	87	20141013.115239	same	60	diff	0	4216
TS	230	24	m	PSYC4802-20144	1.0	Block	exp	88	20141013.115245	same	60	same	1	2986
TS	230	24	m	PSYC4802-20144	1.0	Block	exp	89	20141013.115250	diff	20	diff	1	3797
TS	230	24	m	PSYC4802-20144	1.0	Block	exp	90	20141013.115256	diff	60	diff	1	3377
TS	230	24	m	PSYC4802-20144	1.0	Block	exp	91	20141013.115301	diff	60	diff	1	4361
TS	230	24	m	PSYC4802-20144	1.0	Block	exp	92	20141013.115308	diff	100	diff	1	4007
TS	230	24	m	PSYC4802-20144	1.0	Block	exp	93	20141013.115314	same	60	diff	0	3946
TS	230	24	m	PSYC4802-20144	1.0	Block	exp	94	20141013.115320	diff	20	diff	1	3556
TS	230	24	m	PSYC4802-20144	1.0	Block	exp	95	20141013.115325	same	60	same	1	3381
TS	230	24	m	PSYC4802-20144	1.0	Block	exp	96	20141013.115331	same	20	same	1	2687
TS	230	24	m	PSYC4802-20144	1.0	Block	exp	97	20141013.115335	diff	100	diff	1	4681
TS	230	24	m	PSYC4802-20144	1.0	Block	exp	98	20141013.115342	diff	20	diff	1	1801
TS	230	24	m	PSYC4802-20144	1.0	Block	exp	99	20141013.115346	diff	20	diff	1	2556
TS	230	24	m	PSYC4802-20144	1.0	Block	exp	100	20141013.115350	same	20	same	1	2766
TS	230	24	m	PSYC4802-20144	1.0	Block	exp	101	20141013.115400	same	60	same	1	3366
TS	230	24	m	PSYC4802-20144	1.0	Block	exp	102	20141013.115405	diff	100	diff	1	3016
TS	230	24	m	PSYC4802-20144	1.0	Block	exp	103	20141013.115410	diff	60	diff	1	2856
TS	230	24	m	PSYC4802-20144	1.0	Block	exp	104	20141013.115415	same	100	diff	0	2236
TS	230	24	m	PSYC4802-20144	1.0	Block	exp	105	20141013.115419	same	20	same	1	5856
TS	230	24	m	PSYC4802-20144	1.0	Block	exp	106	20141013.115427	diff	60	same	0	5896
TS	230	24	m	PSYC4802-20144	1.0	Block	exp	107	20141013.115435	diff	20	diff	1	2616
TS	230	24	m	PSYC4802-20144	1.0	Block	exp	108	20141013.115439	same	60	same	1	7267
TS	230	24	m	PSYC4802-20144	1.0	Block	exp	109	20141013.115449	diff	100	same	0	4152
TS	230	24	m	PSYC4802-20144	1.0	Block	exp	110	20141013.115455	same	60	diff	0	5661
TS	230	24	m	PSYC4802-20144	1.0	Block	exp	111	20141013.115503	diff	20	diff	1	5436
TS	230	24	m	PSYC4802-20144	1.0	Block	exp	112	20141013.115510	diff	100	diff	1	3941
TS	230	24	m	PSYC4802-20144	1.0	Block	exp	113	20141013.115516	diff	100	diff	1	17572
TS	230	24	m	PSYC4802-20144	1.0	Block	exp	114	20141013.115536	same	100	same	1	4806
TS	230	24	m	PSYC4802-20144	1.0	Block	exp	115	20141013.115542	same	60	same	1	2846
TS	230	24	m	PSYC4802-20144	1.0	Block	exp	116	20141013.115547	diff	20	diff	1	7987
TS	230	24	m	PSYC4802-20144	1.0	Block	exp	117	20141013.115557	same	100	diff	0	4216
TS	230	24	m	PSYC4802-20144	1.0	Block	exp	118	20141013.115603	diff	60	same	0	2691
TS	230	24	m	PSYC4802-20144	1.0	Block	exp	119	20141013.115608	diff	100	diff	1	7882
TS	230	24	m	PSYC4802-20144	1.0	Block	exp	120	20141013.115618	diff	20	diff	1	3197
TS	230	24	m	PSYC4802-20144	1.0	Block	exp	121	20141013.115623	diff	20	diff	1	1901
TS	230	24	m	PSYC4802-20144	1.0	Block	exp	122	20141013.115627	same	20	same	1	3586
TS	230	24	m	PSYC4802-20144	1.0	Block	exp	123	20141013.115633	diff	20	diff	1	5817
TS	230	24	m	PSYC4802-20144	1.0	Block	exp	124	20141013.115640	same	20	same	1	2856
TS	230	24	m	PSYC4802-20144	1.0	Block	exp	125	20141013.115645	same	60	same	1	6406
TS	230	24	m	PSYC4802-20144	1.0	Block	exp	126	20141013.115654	same	20	same	1	2367
TS	230	24	m	PSYC4802-20144	1.0	Block	exp	127	20141013.115658	same	20	same	1	2176
TS	230	24	m	PSYC4802-20144	1.0	Block	exp	128	20141013.115702	same	20	same	1	4771
TS	230	24	m	PSYC4802-20144	1.0	Block	exp	129	20141013.115709	same	20	same	1	3921
TS	230	24	m	PSYC4802-20144	1.0	Block	exp	130	20141013.115715	same	20	same	1	1906
TS	230	24	m	PSYC4802-20144	1.0	Block	exp	131	20141013.115719	diff	60	diff	1	4957
TS	230	24	m	PSYC4802-20144	1.0	Block	exp	132	20141013.115726	same	100	diff	0	3911
TS	230	24	m	PSYC4802-20144	1.0	Block	exp	133	20141013.115732	diff	100	diff	1	5526
TS	230	24	m	PSYC4802-20144	1.0	Block	exp	134	20141013.115739	diff	100	diff	1	6846
TS	230	24	m	PSYC4802-20144	1.0	Block	exp	135	20141013.115748	same	60	same	1	5536
TS	230	24	m	PSYC4802-20144	1.0	Block	exp	136	20141013.115755	same	20	same	1	2611
TS	230	24	m	PSYC4802-20144	1.0	Block	exp	137	20141013.115800	diff	60	diff	1	3551
TS	230	24	m	PSYC4802-20144	1.0	Block	exp	138	20141013.115806	diff	100	diff	1	3322
TS	230	24	m	PSYC4802-20144	1.0	Block	exp	139	20141013.115811	same	100	diff	0	4481
TS	230	24	m	PSYC4802-20144	1.0	Block	exp	140	20141013.115817	same	100	same	1	6306
TS	230	24	m	PSYC4802-20144	1.0	Block	exp	141	20141013.115826	diff	60	diff	1	3816
TS	230	24	m	PSYC4802-20144	1.0	Block	exp	142	20141013.115832	same	100	same	1	6352
TS	230	24	m	PSYC4802-20144	1.0	Block	exp	143	20141013.115840	same	60	same	1	6086
TS	230	24	m	PSYC4802-20144	1.0	Block	exp	144	20141013.115848	same	60	same	1	3502
TS	230	24	m	PSYC4802-20144	1.0	Block	exp	145	20141013.115853	diff	20	same	0	6321
TS	230	24	m	PSYC4802-20144	1.0	Block	exp	146	20141013.115902	same	100	same	1	4701
TS	230	24	m	PSYC4802-20144	1.0	Block	exp	147	20141013.115908	same	100	same	1	3796
TS	230	24	m	PSYC4802-20144	1.0	Block	exp	148	20141013.115914	diff	20	same	0	3411
TS	230	24	m	PSYC4802-20144	1.0	Block	exp	149	20141013.115920	same	20	same	1	3021
TS	230	24	m	PSYC4802-20144	1.0	Block	exp	150	20141013.115925	diff	100	diff	1	8016
