Experimenter	Subject	Age	Sex	Experiment	Version	Block	TrialType	Trial	Timestamp	SameDiff	Rotation	Response	Acc	RT
PRB	139	19	f	PSYC4802-20142	1.0	Block	practice	1	20140604.120036	same	20	diff	0	14157
PRB	139	19	f	PSYC4802-20142	1.0	Block	practice	2	20140604.120052	same	100	same	1	1671
PRB	139	19	f	PSYC4802-20142	1.0	Block	practice	3	20140604.120056	diff	60	diff	1	7114
PRB	139	19	f	PSYC4802-20142	1.0	Block	practice	4	20140604.120105	diff	100	diff	1	7401
PRB	139	19	f	PSYC4802-20142	1.0	Block	practice	5	20140604.120115	diff	100	same	0	7155
PRB	139	19	f	PSYC4802-20142	1.0	Block	practice	6	20140604.120124	same	60	same	1	6880
PRB	139	19	f	PSYC4802-20142	1.0	Block	practice	7	20140604.120133	diff	20	diff	1	5456
PRB	139	19	f	PSYC4802-20142	1.0	Block	practice	8	20140604.120140	same	20	same	1	3054
PRB	139	19	f	PSYC4802-20142	1.0	Block	practice	9	20140604.120145	same	100	same	1	5884
PRB	139	19	f	PSYC4802-20142	1.0	Block	practice	10	20140604.120153	same	100	same	1	1929
PRB	139	19	f	PSYC4802-20142	1.0	Block	practice	11	20140604.120157	diff	100	diff	1	4782
PRB	139	19	f	PSYC4802-20142	1.0	Block	practice	12	20140604.120204	diff	20	diff	1	1613
PRB	139	19	f	PSYC4802-20142	1.0	Block	practice	13	20140604.120207	same	20	same	1	1935
PRB	139	19	f	PSYC4802-20142	1.0	Block	practice	14	20140604.120211	diff	60	same	0	1829
PRB	139	19	f	PSYC4802-20142	1.0	Block	practice	15	20140604.120215	diff	100	diff	1	6581
PRB	139	19	f	PSYC4802-20142	1.0	Block	practice	16	20140604.120224	same	60	same	1	1565
PRB	139	19	f	PSYC4802-20142	1.0	Block	practice	17	20140604.120227	same	20	same	1	1448
PRB	139	19	f	PSYC4802-20142	1.0	Block	practice	18	20140604.120231	diff	20	diff	1	2362
PRB	139	19	f	PSYC4802-20142	1.0	Block	practice	19	20140604.120235	diff	20	diff	1	4595
PRB	139	19	f	PSYC4802-20142	1.0	Block	practice	20	20140604.120242	diff	60	same	0	3845
PRB	139	19	f	PSYC4802-20142	1.0	Block	practice	21	20140604.120248	diff	20	diff	1	6153
PRB	139	19	f	PSYC4802-20142	1.0	Block	practice	22	20140604.120256	diff	60	diff	1	7747
PRB	139	19	f	PSYC4802-20142	1.0	Block	practice	23	20140604.120306	same	60	same	1	3135
PRB	139	19	f	PSYC4802-20142	1.0	Block	practice	24	20140604.120311	diff	100	diff	1	2913
PRB	139	19	f	PSYC4802-20142	1.0	Block	practice	25	20140604.120316	same	100	same	1	2363
PRB	139	19	f	PSYC4802-20142	1.0	Block	practice	26	20140604.120320	same	20	same	1	1823
PRB	139	19	f	PSYC4802-20142	1.0	Block	practice	27	20140604.120324	same	60	same	1	5808
PRB	139	19	f	PSYC4802-20142	1.0	Block	practice	28	20140604.120332	diff	60	diff	1	3054
PRB	139	19	f	PSYC4802-20142	1.0	Block	practice	29	20140604.120337	same	100	same	1	2474
PRB	139	19	f	PSYC4802-20142	1.0	Block	practice	30	20140604.120342	same	60	diff	0	2813
PRB	139	19	f	PSYC4802-20142	1.0	Block	exp	31	20140604.120346	same	60	same	1	4471
PRB	139	19	f	PSYC4802-20142	1.0	Block	exp	32	20140604.120353	diff	20	same	0	2104
PRB	139	19	f	PSYC4802-20142	1.0	Block	exp	33	20140604.120357	diff	60	diff	1	4565
PRB	139	19	f	PSYC4802-20142	1.0	Block	exp	34	20140604.120404	same	20	same	1	1343
PRB	139	19	f	PSYC4802-20142	1.0	Block	exp	35	20140604.120407	diff	20	diff	1	2930
PRB	139	19	f	PSYC4802-20142	1.0	Block	exp	36	20140604.120412	diff	60	diff	1	2263
PRB	139	19	f	PSYC4802-20142	1.0	Block	exp	37	20140604.120417	same	20	same	1	2268
PRB	139	19	f	PSYC4802-20142	1.0	Block	exp	38	20140604.120421	same	100	same	1	2216
PRB	139	19	f	PSYC4802-20142	1.0	Block	exp	39	20140604.120425	same	100	diff	0	3013
PRB	139	19	f	PSYC4802-20142	1.0	Block	exp	40	20140604.120430	diff	100	same	0	6851
PRB	139	19	f	PSYC4802-20142	1.0	Block	exp	41	20140604.120439	diff	100	diff	1	4073
PRB	139	19	f	PSYC4802-20142	1.0	Block	exp	42	20140604.120445	diff	20	diff	1	3786
PRB	139	19	f	PSYC4802-20142	1.0	Block	exp	43	20140604.120451	same	20	same	1	2180
PRB	139	19	f	PSYC4802-20142	1.0	Block	exp	44	20140604.120455	diff	20	diff	1	2363
PRB	139	19	f	PSYC4802-20142	1.0	Block	exp	45	20140604.120500	diff	100	same	0	8491
PRB	139	19	f	PSYC4802-20142	1.0	Block	exp	46	20140604.120510	diff	100	diff	1	1935
PRB	139	19	f	PSYC4802-20142	1.0	Block	exp	47	20140604.120514	same	60	same	1	2691
PRB	139	19	f	PSYC4802-20142	1.0	Block	exp	48	20140604.120519	diff	60	diff	1	6271
PRB	139	19	f	PSYC4802-20142	1.0	Block	exp	49	20140604.120527	diff	20	same	0	2403
PRB	139	19	f	PSYC4802-20142	1.0	Block	exp	50	20140604.120532	diff	20	diff	1	3968
PRB	139	19	f	PSYC4802-20142	1.0	Block	exp	51	20140604.120540	same	60	same	1	4132
PRB	139	19	f	PSYC4802-20142	1.0	Block	exp	52	20140604.120546	same	60	diff	0	2380
PRB	139	19	f	PSYC4802-20142	1.0	Block	exp	53	20140604.120551	same	60	same	1	3469
PRB	139	19	f	PSYC4802-20142	1.0	Block	exp	54	20140604.120556	diff	20	diff	1	1935
PRB	139	19	f	PSYC4802-20142	1.0	Block	exp	55	20140604.120600	same	20	same	1	1642
PRB	139	19	f	PSYC4802-20142	1.0	Block	exp	56	20140604.120604	diff	60	diff	1	1653
PRB	139	19	f	PSYC4802-20142	1.0	Block	exp	57	20140604.120608	same	100	same	1	3611
PRB	139	19	f	PSYC4802-20142	1.0	Block	exp	58	20140604.120613	same	100	same	1	4308
PRB	139	19	f	PSYC4802-20142	1.0	Block	exp	59	20140604.120620	same	60	diff	0	3030
PRB	139	19	f	PSYC4802-20142	1.0	Block	exp	60	20140604.120625	same	100	same	1	1730
PRB	139	19	f	PSYC4802-20142	1.0	Block	exp	61	20140604.120629	same	100	same	1	1419
PRB	139	19	f	PSYC4802-20142	1.0	Block	exp	62	20140604.120632	diff	60	diff	1	1537
PRB	139	19	f	PSYC4802-20142	1.0	Block	exp	63	20140604.120636	same	20	same	1	974
PRB	139	19	f	PSYC4802-20142	1.0	Block	exp	64	20140604.120639	diff	60	diff	1	1917
PRB	139	19	f	PSYC4802-20142	1.0	Block	exp	65	20140604.120643	diff	100	same	0	3610
PRB	139	19	f	PSYC4802-20142	1.0	Block	exp	66	20140604.120648	same	20	same	1	1641
PRB	139	19	f	PSYC4802-20142	1.0	Block	exp	67	20140604.120652	same	100	same	1	2427
PRB	139	19	f	PSYC4802-20142	1.0	Block	exp	68	20140604.120657	same	60	diff	0	2245
PRB	139	19	f	PSYC4802-20142	1.0	Block	exp	69	20140604.120701	same	20	same	1	1747
PRB	139	19	f	PSYC4802-20142	1.0	Block	exp	70	20140604.120705	same	20	same	1	1606
PRB	139	19	f	PSYC4802-20142	1.0	Block	exp	71	20140604.120709	same	100	same	1	2369
PRB	139	19	f	PSYC4802-20142	1.0	Block	exp	72	20140604.120713	same	60	same	1	3153
PRB	139	19	f	PSYC4802-20142	1.0	Block	exp	73	20140604.120718	same	20	same	1	1759
PRB	139	19	f	PSYC4802-20142	1.0	Block	exp	74	20140604.120722	diff	100	diff	1	6288
PRB	139	19	f	PSYC4802-20142	1.0	Block	exp	75	20140604.120730	diff	100	diff	1	4712
PRB	139	19	f	PSYC4802-20142	1.0	Block	exp	76	20140604.120737	same	100	same	1	2702
PRB	139	19	f	PSYC4802-20142	1.0	Block	exp	77	20140604.120742	diff	20	diff	1	4613
PRB	139	19	f	PSYC4802-20142	1.0	Block	exp	78	20140604.120749	diff	20	diff	1	2105
PRB	139	19	f	PSYC4802-20142	1.0	Block	exp	79	20140604.120753	same	60	same	1	2169
PRB	139	19	f	PSYC4802-20142	1.0	Block	exp	80	20140604.120757	same	100	same	1	3604
PRB	139	19	f	PSYC4802-20142	1.0	Block	exp	81	20140604.120803	diff	20	diff	1	2339
PRB	139	19	f	PSYC4802-20142	1.0	Block	exp	82	20140604.120807	diff	100	diff	1	4583
PRB	139	19	f	PSYC4802-20142	1.0	Block	exp	83	20140604.120814	diff	100	same	0	2837
PRB	139	19	f	PSYC4802-20142	1.0	Block	exp	84	20140604.120818	diff	60	same	0	7372
PRB	139	19	f	PSYC4802-20142	1.0	Block	exp	85	20140604.120828	diff	100	diff	1	2064
PRB	139	19	f	PSYC4802-20142	1.0	Block	exp	86	20140604.120832	diff	100	diff	1	1824
PRB	139	19	f	PSYC4802-20142	1.0	Block	exp	87	20140604.120836	same	60	diff	0	3434
PRB	139	19	f	PSYC4802-20142	1.0	Block	exp	88	20140604.120841	same	20	same	1	3353
PRB	139	19	f	PSYC4802-20142	1.0	Block	exp	89	20140604.120847	diff	100	same	0	1858
PRB	139	19	f	PSYC4802-20142	1.0	Block	exp	90	20140604.120851	diff	60	diff	1	2322
PRB	139	19	f	PSYC4802-20142	1.0	Block	exp	91	20140604.120855	diff	60	diff	1	4513
PRB	139	19	f	PSYC4802-20142	1.0	Block	exp	92	20140604.120902	diff	60	same	0	4811
PRB	139	19	f	PSYC4802-20142	1.0	Block	exp	93	20140604.120909	diff	60	diff	1	5468
PRB	139	19	f	PSYC4802-20142	1.0	Block	exp	94	20140604.120916	same	100	same	1	1478
PRB	139	19	f	PSYC4802-20142	1.0	Block	exp	95	20140604.120920	diff	20	same	0	2380
PRB	139	19	f	PSYC4802-20142	1.0	Block	exp	96	20140604.120924	diff	60	diff	1	3904
PRB	139	19	f	PSYC4802-20142	1.0	Block	exp	97	20140604.120930	same	100	same	1	2404
PRB	139	19	f	PSYC4802-20142	1.0	Block	exp	98	20140604.120935	same	60	diff	0	2397
PRB	139	19	f	PSYC4802-20142	1.0	Block	exp	99	20140604.120939	same	100	same	1	2439
PRB	139	19	f	PSYC4802-20142	1.0	Block	exp	100	20140604.120943	diff	60	diff	1	2561
PRB	139	19	f	PSYC4802-20142	1.0	Block	exp	101	20140604.120949	diff	20	diff	1	4232
PRB	139	19	f	PSYC4802-20142	1.0	Block	exp	102	20140604.120956	diff	20	diff	1	4718
PRB	139	19	f	PSYC4802-20142	1.0	Block	exp	103	20140604.121002	same	100	same	1	5609
PRB	139	19	f	PSYC4802-20142	1.0	Block	exp	104	20140604.121010	same	60	diff	0	3493
PRB	139	19	f	PSYC4802-20142	1.0	Block	exp	105	20140604.121016	same	100	same	1	3640
PRB	139	19	f	PSYC4802-20142	1.0	Block	exp	106	20140604.121021	same	20	same	1	1519
PRB	139	19	f	PSYC4802-20142	1.0	Block	exp	107	20140604.121025	same	100	diff	0	2561
PRB	139	19	f	PSYC4802-20142	1.0	Block	exp	108	20140604.121030	diff	100	diff	1	5480
PRB	139	19	f	PSYC4802-20142	1.0	Block	exp	109	20140604.121037	same	60	same	1	3136
PRB	139	19	f	PSYC4802-20142	1.0	Block	exp	110	20140604.121042	same	60	diff	0	2198
PRB	139	19	f	PSYC4802-20142	1.0	Block	exp	111	20140604.121046	diff	60	same	0	1928
PRB	139	19	f	PSYC4802-20142	1.0	Block	exp	112	20140604.121050	same	20	same	1	4021
PRB	139	19	f	PSYC4802-20142	1.0	Block	exp	113	20140604.121056	same	100	diff	0	2439
PRB	139	19	f	PSYC4802-20142	1.0	Block	exp	114	20140604.121101	diff	100	diff	1	2673
PRB	139	19	f	PSYC4802-20142	1.0	Block	exp	115	20140604.121106	diff	60	same	0	4360
PRB	139	19	f	PSYC4802-20142	1.0	Block	exp	116	20140604.121112	diff	20	same	0	3118
PRB	139	19	f	PSYC4802-20142	1.0	Block	exp	117	20140604.121117	same	100	same	1	4935
PRB	139	19	f	PSYC4802-20142	1.0	Block	exp	118	20140604.121124	diff	100	diff	1	5035
PRB	139	19	f	PSYC4802-20142	1.0	Block	exp	119	20140604.121131	same	60	same	1	4049
PRB	139	19	f	PSYC4802-20142	1.0	Block	exp	120	20140604.121138	diff	20	diff	1	5181
PRB	139	19	f	PSYC4802-20142	1.0	Block	exp	121	20140604.121145	diff	60	diff	1	5280
PRB	139	19	f	PSYC4802-20142	1.0	Block	exp	122	20140604.121152	diff	20	same	0	3616
PRB	139	19	f	PSYC4802-20142	1.0	Block	exp	123	20140604.121158	same	20	same	1	1566
PRB	139	19	f	PSYC4802-20142	1.0	Block	exp	124	20140604.121201	same	60	diff	0	1548
PRB	139	19	f	PSYC4802-20142	1.0	Block	exp	125	20140604.121205	same	100	same	1	2954
PRB	139	19	f	PSYC4802-20142	1.0	Block	exp	126	20140604.121210	diff	60	diff	1	2884
PRB	139	19	f	PSYC4802-20142	1.0	Block	exp	127	20140604.121215	diff	100	diff	1	3370
PRB	139	19	f	PSYC4802-20142	1.0	Block	exp	128	20140604.121220	same	60	same	1	2450
PRB	139	19	f	PSYC4802-20142	1.0	Block	exp	129	20140604.121225	diff	100	diff	1	2479
PRB	139	19	f	PSYC4802-20142	1.0	Block	exp	130	20140604.121229	same	60	same	1	4090
PRB	139	19	f	PSYC4802-20142	1.0	Block	exp	131	20140604.121236	diff	100	same	0	2128
PRB	139	19	f	PSYC4802-20142	1.0	Block	exp	132	20140604.121240	same	60	same	1	2708
PRB	139	19	f	PSYC4802-20142	1.0	Block	exp	133	20140604.121245	same	20	same	1	1361
PRB	139	19	f	PSYC4802-20142	1.0	Block	exp	134	20140604.121248	diff	20	diff	1	2216
PRB	139	19	f	PSYC4802-20142	1.0	Block	exp	135	20140604.121252	diff	60	diff	1	2907
PRB	139	19	f	PSYC4802-20142	1.0	Block	exp	136	20140604.121257	same	20	same	1	1342
PRB	139	19	f	PSYC4802-20142	1.0	Block	exp	137	20140604.121301	same	100	same	1	2386
PRB	139	19	f	PSYC4802-20142	1.0	Block	exp	138	20140604.121305	same	20	same	1	1401
PRB	139	19	f	PSYC4802-20142	1.0	Block	exp	139	20140604.121308	diff	60	same	0	1384
PRB	139	19	f	PSYC4802-20142	1.0	Block	exp	140	20140604.121312	diff	20	diff	1	1572
PRB	139	19	f	PSYC4802-20142	1.0	Block	exp	141	20140604.121315	diff	20	diff	1	1578
PRB	139	19	f	PSYC4802-20142	1.0	Block	exp	142	20140604.121319	same	20	same	1	1208
PRB	139	19	f	PSYC4802-20142	1.0	Block	exp	143	20140604.121322	same	60	same	1	1267
PRB	139	19	f	PSYC4802-20142	1.0	Block	exp	144	20140604.121326	same	20	same	1	1536
PRB	139	19	f	PSYC4802-20142	1.0	Block	exp	145	20140604.121329	same	20	same	1	1173
PRB	139	19	f	PSYC4802-20142	1.0	Block	exp	146	20140604.121332	diff	100	diff	1	1589
PRB	139	19	f	PSYC4802-20142	1.0	Block	exp	147	20140604.121336	diff	60	diff	1	1402
PRB	139	19	f	PSYC4802-20142	1.0	Block	exp	148	20140604.121340	diff	100	diff	1	2691
PRB	139	19	f	PSYC4802-20142	1.0	Block	exp	149	20140604.121344	same	20	same	1	1970
PRB	139	19	f	PSYC4802-20142	1.0	Block	exp	150	20140604.121348	diff	20	diff	1	1232
