Experimenter	Subject	Age	Sex	Experiment	Version	Block	TrialType	Trial	Timestamp	SameDiff	Rotation	Response	Acc	RT
MB	275	19	F	PSYC4802-20144	1.0.1	Block	practice	1	20141022.115243	same	60	same	1	29862
MB	275	19	F	PSYC4802-20144	1.0.1	Block	practice	2	20141022.115315	same	100	same	1	34253
MB	275	19	F	PSYC4802-20144	1.0.1	Block	practice	3	20141022.115351	diff	100	diff	1	11642
MB	275	19	F	PSYC4802-20144	1.0.1	Block	practice	4	20141022.115405	same	20	same	1	6686
MB	275	19	F	PSYC4802-20144	1.0.1	Block	practice	5	20141022.115414	diff	20	diff	1	26378
MB	275	19	F	PSYC4802-20144	1.0.1	Block	practice	6	20141022.115442	same	100	same	1	12702
MB	275	19	F	PSYC4802-20144	1.0.1	Block	practice	7	20141022.115457	diff	100	diff	1	7121
MB	275	19	F	PSYC4802-20144	1.0.1	Block	practice	8	20141022.115506	same	20	same	1	4586
MB	275	19	F	PSYC4802-20144	1.0.1	Block	practice	9	20141022.115512	same	60	same	1	13607
MB	275	19	F	PSYC4802-20144	1.0.1	Block	practice	10	20141022.115528	same	60	same	1	7561
MB	275	19	F	PSYC4802-20144	1.0.1	Block	practice	11	20141022.115538	diff	100	diff	1	7427
MB	275	19	F	PSYC4802-20144	1.0.1	Block	practice	12	20141022.115547	same	100	same	1	15177
MB	275	19	F	PSYC4802-20144	1.0.1	Block	practice	13	20141022.115604	same	60	same	1	18697
MB	275	19	F	PSYC4802-20144	1.0.1	Block	practice	14	20141022.115625	same	20	same	1	6823
MB	275	19	F	PSYC4802-20144	1.0.1	Block	practice	15	20141022.115634	diff	20	same	0	15711
MB	275	19	F	PSYC4802-20144	1.0.1	Block	practice	16	20141022.115652	diff	20	diff	1	12862
MB	275	19	F	PSYC4802-20144	1.0.1	Block	practice	17	20141022.115706	same	60	same	1	9636
MB	275	19	F	PSYC4802-20144	1.0.1	Block	practice	18	20141022.115718	diff	20	diff	1	12841
MB	275	19	F	PSYC4802-20144	1.0.1	Block	practice	19	20141022.115733	diff	60	diff	1	8781
MB	275	19	F	PSYC4802-20144	1.0.1	Block	practice	20	20141022.115744	diff	100	diff	1	13497
MB	275	19	F	PSYC4802-20144	1.0.1	Block	practice	21	20141022.115759	same	20	same	1	4201
MB	275	19	F	PSYC4802-20144	1.0.1	Block	practice	22	20141022.115805	diff	100	diff	1	7757
MB	275	19	F	PSYC4802-20144	1.0.1	Block	practice	23	20141022.115815	diff	60	diff	1	9447
MB	275	19	F	PSYC4802-20144	1.0.1	Block	practice	24	20141022.115827	same	20	same	1	10841
MB	275	19	F	PSYC4802-20144	1.0.1	Block	practice	25	20141022.115840	diff	20	diff	1	3221
MB	275	19	F	PSYC4802-20144	1.0.1	Block	practice	26	20141022.115845	diff	60	diff	1	8766
MB	275	19	F	PSYC4802-20144	1.0.1	Block	practice	27	20141022.115856	diff	60	diff	1	5201
MB	275	19	F	PSYC4802-20144	1.0.1	Block	practice	28	20141022.115903	same	100	same	1	4517
MB	275	19	F	PSYC4802-20144	1.0.1	Block	practice	29	20141022.115909	diff	60	same	0	6197
MB	275	19	F	PSYC4802-20144	1.0.1	Block	practice	30	20141022.115917	same	100	diff	0	9487
MB	275	19	F	PSYC4802-20144	1.0.1	Block	exp	31	20141022.115929	same	20	same	1	6046
MB	275	19	F	PSYC4802-20144	1.0.1	Block	exp	32	20141022.115937	diff	20	diff	1	9421
MB	275	19	F	PSYC4802-20144	1.0.1	Block	exp	33	20141022.115948	same	60	same	1	3981
MB	275	19	F	PSYC4802-20144	1.0.1	Block	exp	34	20141022.115954	same	100	same	1	9966
MB	275	19	F	PSYC4802-20144	1.0.1	Block	exp	35	20141022.120006	same	60	diff	0	4711
MB	275	19	F	PSYC4802-20144	1.0.1	Block	exp	36	20141022.120013	same	60	same	1	3776
MB	275	19	F	PSYC4802-20144	1.0.1	Block	exp	37	20141022.120019	same	60	same	1	2516
MB	275	19	F	PSYC4802-20144	1.0.1	Block	exp	38	20141022.120023	diff	20	diff	1	2626
MB	275	19	F	PSYC4802-20144	1.0.1	Block	exp	39	20141022.120028	same	20	same	1	3381
MB	275	19	F	PSYC4802-20144	1.0.1	Block	exp	40	20141022.120033	diff	20	diff	1	4581
MB	275	19	F	PSYC4802-20144	1.0.1	Block	exp	41	20141022.120040	diff	100	diff	1	11397
MB	275	19	F	PSYC4802-20144	1.0.1	Block	exp	42	20141022.120053	same	20	same	1	6266
MB	275	19	F	PSYC4802-20144	1.0.1	Block	exp	43	20141022.120102	diff	60	same	0	3401
MB	275	19	F	PSYC4802-20144	1.0.1	Block	exp	44	20141022.120107	same	20	same	1	3656
MB	275	19	F	PSYC4802-20144	1.0.1	Block	exp	45	20141022.120113	diff	100	diff	1	6452
MB	275	19	F	PSYC4802-20144	1.0.1	Block	exp	46	20141022.120121	diff	20	same	0	4336
MB	275	19	F	PSYC4802-20144	1.0.1	Block	exp	47	20141022.120127	diff	100	same	0	2986
MB	275	19	F	PSYC4802-20144	1.0.1	Block	exp	48	20141022.120133	same	100	same	1	746
MB	275	19	F	PSYC4802-20144	1.0.1	Block	exp	49	20141022.120135	same	100	same	1	7053
MB	275	19	F	PSYC4802-20144	1.0.1	Block	exp	50	20141022.120144	same	60	same	1	7306
MB	275	19	F	PSYC4802-20144	1.0.1	Block	exp	51	20141022.120204	same	100	same	1	2886
MB	275	19	F	PSYC4802-20144	1.0.1	Block	exp	52	20141022.120209	diff	100	diff	1	3817
MB	275	19	F	PSYC4802-20144	1.0.1	Block	exp	53	20141022.120215	same	20	same	1	2696
MB	275	19	F	PSYC4802-20144	1.0.1	Block	exp	54	20141022.120219	diff	20	diff	1	4126
MB	275	19	F	PSYC4802-20144	1.0.1	Block	exp	55	20141022.120226	diff	60	same	0	5356
MB	275	19	F	PSYC4802-20144	1.0.1	Block	exp	56	20141022.120233	diff	100	same	0	5041
MB	275	19	F	PSYC4802-20144	1.0.1	Block	exp	57	20141022.120240	diff	20	diff	1	2141
MB	275	19	F	PSYC4802-20144	1.0.1	Block	exp	58	20141022.120244	diff	60	diff	1	5661
MB	275	19	F	PSYC4802-20144	1.0.1	Block	exp	59	20141022.120252	same	20	same	1	4692
MB	275	19	F	PSYC4802-20144	1.0.1	Block	exp	60	20141022.120258	diff	60	diff	1	10452
MB	275	19	F	PSYC4802-20144	1.0.1	Block	exp	61	20141022.120311	same	60	same	1	4637
MB	275	19	F	PSYC4802-20144	1.0.1	Block	exp	62	20141022.120318	diff	60	diff	1	4641
MB	275	19	F	PSYC4802-20144	1.0.1	Block	exp	63	20141022.120324	diff	20	same	0	5196
MB	275	19	F	PSYC4802-20144	1.0.1	Block	exp	64	20141022.120331	same	100	same	1	3881
MB	275	19	F	PSYC4802-20144	1.0.1	Block	exp	65	20141022.120337	same	20	same	1	3946
MB	275	19	F	PSYC4802-20144	1.0.1	Block	exp	66	20141022.120343	same	100	same	1	3366
MB	275	19	F	PSYC4802-20144	1.0.1	Block	exp	67	20141022.120349	same	20	same	1	3871
MB	275	19	F	PSYC4802-20144	1.0.1	Block	exp	68	20141022.120354	diff	60	same	0	7627
MB	275	19	F	PSYC4802-20144	1.0.1	Block	exp	69	20141022.120404	diff	60	diff	1	4521
MB	275	19	F	PSYC4802-20144	1.0.1	Block	exp	70	20141022.120411	same	100	same	1	7162
MB	275	19	F	PSYC4802-20144	1.0.1	Block	exp	71	20141022.120420	diff	20	diff	1	3931
MB	275	19	F	PSYC4802-20144	1.0.1	Block	exp	72	20141022.120426	diff	60	diff	1	6822
MB	275	19	F	PSYC4802-20144	1.0.1	Block	exp	73	20141022.120434	diff	100	diff	1	8117
MB	275	19	F	PSYC4802-20144	1.0.1	Block	exp	74	20141022.120445	diff	20	diff	1	4822
MB	275	19	F	PSYC4802-20144	1.0.1	Block	exp	75	20141022.120451	diff	100	same	0	2857
MB	275	19	F	PSYC4802-20144	1.0.1	Block	exp	76	20141022.120456	same	60	same	1	5746
MB	275	19	F	PSYC4802-20144	1.0.1	Block	exp	77	20141022.120504	same	100	same	1	7221
MB	275	19	F	PSYC4802-20144	1.0.1	Block	exp	78	20141022.120513	same	100	same	1	6116
MB	275	19	F	PSYC4802-20144	1.0.1	Block	exp	79	20141022.120521	same	100	same	1	7626
MB	275	19	F	PSYC4802-20144	1.0.1	Block	exp	80	20141022.120531	same	20	same	1	3896
MB	275	19	F	PSYC4802-20144	1.0.1	Block	exp	81	20141022.120537	same	60	same	1	2591
MB	275	19	F	PSYC4802-20144	1.0.1	Block	exp	82	20141022.120542	diff	60	same	0	4607
MB	275	19	F	PSYC4802-20144	1.0.1	Block	exp	83	20141022.120548	same	60	same	1	4026
MB	275	19	F	PSYC4802-20144	1.0.1	Block	exp	84	20141022.120554	diff	100	diff	1	3781
MB	275	19	F	PSYC4802-20144	1.0.1	Block	exp	85	20141022.120600	same	100	diff	0	3986
MB	275	19	F	PSYC4802-20144	1.0.1	Block	exp	86	20141022.120606	diff	20	diff	1	10146
MB	275	19	F	PSYC4802-20144	1.0.1	Block	exp	87	20141022.120618	same	100	same	1	8892
MB	275	19	F	PSYC4802-20144	1.0.1	Block	exp	88	20141022.120629	diff	60	diff	1	4412
MB	275	19	F	PSYC4802-20144	1.0.1	Block	exp	89	20141022.120635	same	60	same	1	3806
MB	275	19	F	PSYC4802-20144	1.0.1	Block	exp	90	20141022.120641	diff	100	same	0	5493
MB	275	19	F	PSYC4802-20144	1.0.1	Block	exp	91	20141022.120649	diff	20	same	0	12951
MB	275	19	F	PSYC4802-20144	1.0.1	Block	exp	92	20141022.120704	diff	20	diff	1	3031
MB	275	19	F	PSYC4802-20144	1.0.1	Block	exp	93	20141022.120709	diff	20	diff	1	4436
MB	275	19	F	PSYC4802-20144	1.0.1	Block	exp	94	20141022.120715	diff	100	diff	1	4321
MB	275	19	F	PSYC4802-20144	1.0.1	Block	exp	95	20141022.120722	diff	100	diff	1	5326
MB	275	19	F	PSYC4802-20144	1.0.1	Block	exp	96	20141022.120729	same	60	same	1	4956
MB	275	19	F	PSYC4802-20144	1.0.1	Block	exp	97	20141022.120736	diff	60	diff	1	7626
MB	275	19	F	PSYC4802-20144	1.0.1	Block	exp	98	20141022.120746	diff	60	diff	1	5912
MB	275	19	F	PSYC4802-20144	1.0.1	Block	exp	99	20141022.120753	same	100	same	1	6156
MB	275	19	F	PSYC4802-20144	1.0.1	Block	exp	100	20141022.120802	diff	100	diff	1	8431
MB	275	19	F	PSYC4802-20144	1.0.1	Block	exp	101	20141022.120814	same	60	same	1	3416
MB	275	19	F	PSYC4802-20144	1.0.1	Block	exp	102	20141022.120819	diff	100	same	0	3106
MB	275	19	F	PSYC4802-20144	1.0.1	Block	exp	103	20141022.120824	same	100	diff	0	4797
MB	275	19	F	PSYC4802-20144	1.0.1	Block	exp	104	20141022.120831	same	60	same	1	6781
MB	275	19	F	PSYC4802-20144	1.0.1	Block	exp	105	20141022.120840	same	20	same	1	3571
MB	275	19	F	PSYC4802-20144	1.0.1	Block	exp	106	20141022.120845	same	100	diff	0	2681
MB	275	19	F	PSYC4802-20144	1.0.1	Block	exp	107	20141022.120850	diff	100	same	0	3342
MB	275	19	F	PSYC4802-20144	1.0.1	Block	exp	108	20141022.120855	diff	100	same	0	3086
MB	275	19	F	PSYC4802-20144	1.0.1	Block	exp	109	20141022.120901	same	20	diff	0	4071
MB	275	19	F	PSYC4802-20144	1.0.1	Block	exp	110	20141022.120907	same	100	same	1	14987
MB	275	19	F	PSYC4802-20144	1.0.1	Block	exp	111	20141022.120924	diff	100	diff	1	2527
MB	275	19	F	PSYC4802-20144	1.0.1	Block	exp	112	20141022.120928	same	20	same	1	3371
MB	275	19	F	PSYC4802-20144	1.0.1	Block	exp	113	20141022.120934	same	60	same	1	5666
MB	275	19	F	PSYC4802-20144	1.0.1	Block	exp	114	20141022.120941	same	60	same	1	3216
MB	275	19	F	PSYC4802-20144	1.0.1	Block	exp	115	20141022.120946	diff	20	same	0	6951
MB	275	19	F	PSYC4802-20144	1.0.1	Block	exp	116	20141022.120955	same	100	same	1	6002
MB	275	19	F	PSYC4802-20144	1.0.1	Block	exp	117	20141022.121003	diff	60	same	0	7722
MB	275	19	F	PSYC4802-20144	1.0.1	Block	exp	118	20141022.121013	same	20	same	1	3611
MB	275	19	F	PSYC4802-20144	1.0.1	Block	exp	119	20141022.121019	diff	20	diff	1	3776
MB	275	19	F	PSYC4802-20144	1.0.1	Block	exp	120	20141022.121025	same	60	same	1	3746
MB	275	19	F	PSYC4802-20144	1.0.1	Block	exp	121	20141022.121030	diff	60	diff	1	3787
MB	275	19	F	PSYC4802-20144	1.0.1	Block	exp	122	20141022.121036	same	60	diff	0	17427
MB	275	19	F	PSYC4802-20144	1.0.1	Block	exp	123	20141022.121056	diff	60	diff	1	10907
MB	275	19	F	PSYC4802-20144	1.0.1	Block	exp	124	20141022.121109	same	100	diff	0	2431
MB	275	19	F	PSYC4802-20144	1.0.1	Block	exp	125	20141022.121113	same	100	same	1	2581
MB	275	19	F	PSYC4802-20144	1.0.1	Block	exp	126	20141022.121118	same	20	same	1	6456
MB	275	19	F	PSYC4802-20144	1.0.1	Block	exp	127	20141022.121126	diff	100	diff	1	2511
MB	275	19	F	PSYC4802-20144	1.0.1	Block	exp	128	20141022.121131	same	20	same	1	3196
MB	275	19	F	PSYC4802-20144	1.0.1	Block	exp	129	20141022.121136	diff	100	diff	1	9347
MB	275	19	F	PSYC4802-20144	1.0.1	Block	exp	130	20141022.121147	diff	20	same	0	6847
MB	275	19	F	PSYC4802-20144	1.0.1	Block	exp	131	20141022.121156	diff	60	same	0	5551
MB	275	19	F	PSYC4802-20144	1.0.1	Block	exp	132	20141022.121204	same	20	same	1	4417
MB	275	19	F	PSYC4802-20144	1.0.1	Block	exp	133	20141022.121210	diff	60	diff	1	3146
MB	275	19	F	PSYC4802-20144	1.0.1	Block	exp	134	20141022.121215	diff	20	diff	1	6206
MB	275	19	F	PSYC4802-20144	1.0.1	Block	exp	135	20141022.121224	same	100	same	1	7272
MB	275	19	F	PSYC4802-20144	1.0.1	Block	exp	136	20141022.121233	diff	60	diff	1	6047
MB	275	19	F	PSYC4802-20144	1.0.1	Block	exp	137	20141022.121241	same	60	same	1	5247
MB	275	19	F	PSYC4802-20144	1.0.1	Block	exp	138	20141022.121248	same	20	same	1	5726
MB	275	19	F	PSYC4802-20144	1.0.1	Block	exp	139	20141022.121256	diff	60	diff	1	4867
MB	275	19	F	PSYC4802-20144	1.0.1	Block	exp	140	20141022.121303	diff	20	same	0	4726
MB	275	19	F	PSYC4802-20144	1.0.1	Block	exp	141	20141022.121310	diff	20	diff	1	7917
MB	275	19	F	PSYC4802-20144	1.0.1	Block	exp	142	20141022.121320	diff	20	diff	1	6621
MB	275	19	F	PSYC4802-20144	1.0.1	Block	exp	143	20141022.121328	same	20	same	1	7407
MB	275	19	F	PSYC4802-20144	1.0.1	Block	exp	144	20141022.121338	same	20	same	1	2732
MB	275	19	F	PSYC4802-20144	1.0.1	Block	exp	145	20141022.121342	same	60	same	1	2516
MB	275	19	F	PSYC4802-20144	1.0.1	Block	exp	146	20141022.121347	diff	60	diff	1	4316
MB	275	19	F	PSYC4802-20144	1.0.1	Block	exp	147	20141022.121353	same	20	same	1	3101
MB	275	19	F	PSYC4802-20144	1.0.1	Block	exp	148	20141022.121358	diff	100	same	0	3452
MB	275	19	F	PSYC4802-20144	1.0.1	Block	exp	149	20141022.121404	diff	100	diff	1	5621
MB	275	19	F	PSYC4802-20144	1.0.1	Block	exp	150	20141022.121412	same	60	same	1	12376
