Experimenter	Subject	Age	Sex	Experiment	Version	Block	TrialType	Trial	Timestamp	SameDiff	Rotation	Response	Acc	RT
AL	84	18	F	PSYC4802-20142	1.0	Block	practice	1	20140428.105612	same	100	same	1	8345
AL	84	18	F	PSYC4802-20142	1.0	Block	practice	2	20140428.105623	same	20	same	1	4742
AL	84	18	F	PSYC4802-20142	1.0	Block	practice	3	20140428.105630	diff	100	diff	1	5157
AL	84	18	F	PSYC4802-20142	1.0	Block	practice	4	20140428.105637	diff	100	diff	1	4237
AL	84	18	F	PSYC4802-20142	1.0	Block	practice	5	20140428.105643	diff	60	diff	1	3505
AL	84	18	F	PSYC4802-20142	1.0	Block	practice	6	20140428.105649	diff	60	diff	1	5602
AL	84	18	F	PSYC4802-20142	1.0	Block	practice	7	20140428.105656	diff	60	same	0	16717
AL	84	18	F	PSYC4802-20142	1.0	Block	practice	8	20140428.105715	same	20	same	1	9570
AL	84	18	F	PSYC4802-20142	1.0	Block	practice	9	20140428.105727	same	100	same	1	6605
AL	84	18	F	PSYC4802-20142	1.0	Block	practice	10	20140428.105735	diff	60	diff	1	7442
AL	84	18	F	PSYC4802-20142	1.0	Block	practice	11	20140428.105745	same	20	same	1	5069
AL	84	18	F	PSYC4802-20142	1.0	Block	practice	12	20140428.105752	same	60	same	1	8327
AL	84	18	F	PSYC4802-20142	1.0	Block	practice	13	20140428.105802	same	100	same	1	11245
AL	84	18	F	PSYC4802-20142	1.0	Block	practice	14	20140428.105816	diff	100	diff	1	9727
AL	84	18	F	PSYC4802-20142	1.0	Block	practice	15	20140428.105827	diff	20	diff	1	14069
AL	84	18	F	PSYC4802-20142	1.0	Block	practice	16	20140428.105843	diff	100	diff	1	9019
AL	84	18	F	PSYC4802-20142	1.0	Block	practice	17	20140428.105854	same	100	same	1	12857
AL	84	18	F	PSYC4802-20142	1.0	Block	practice	18	20140428.105909	same	60	same	1	7108
AL	84	18	F	PSYC4802-20142	1.0	Block	practice	19	20140428.105918	same	100	same	1	7442
AL	84	18	F	PSYC4802-20142	1.0	Block	practice	20	20140428.105928	same	20	same	1	3769
AL	84	18	F	PSYC4802-20142	1.0	Block	practice	21	20140428.105934	diff	100	diff	1	4489
AL	84	18	F	PSYC4802-20142	1.0	Block	practice	22	20140428.105940	same	60	same	1	6874
AL	84	18	F	PSYC4802-20142	1.0	Block	practice	23	20140428.105949	diff	20	diff	1	7507
AL	84	18	F	PSYC4802-20142	1.0	Block	practice	24	20140428.105959	diff	20	diff	1	4044
AL	84	18	F	PSYC4802-20142	1.0	Block	practice	25	20140428.110005	same	60	same	1	5696
AL	84	18	F	PSYC4802-20142	1.0	Block	practice	26	20140428.110012	diff	20	diff	1	6710
AL	84	18	F	PSYC4802-20142	1.0	Block	practice	27	20140428.110021	same	20	same	1	4249
AL	84	18	F	PSYC4802-20142	1.0	Block	practice	28	20140428.110027	diff	60	diff	1	3733
AL	84	18	F	PSYC4802-20142	1.0	Block	practice	29	20140428.110033	diff	20	diff	1	6751
AL	84	18	F	PSYC4802-20142	1.0	Block	practice	30	20140428.110042	same	60	diff	0	8380
AL	84	18	F	PSYC4802-20142	1.0	Block	exp	31	20140428.110052	same	100	same	1	9962
AL	84	18	F	PSYC4802-20142	1.0	Block	exp	32	20140428.110104	diff	20	diff	1	4953
AL	84	18	F	PSYC4802-20142	1.0	Block	exp	33	20140428.110111	diff	20	diff	1	4179
AL	84	18	F	PSYC4802-20142	1.0	Block	exp	34	20140428.110117	diff	20	diff	1	3452
AL	84	18	F	PSYC4802-20142	1.0	Block	exp	35	20140428.110123	same	100	same	1	15300
AL	84	18	F	PSYC4802-20142	1.0	Block	exp	36	20140428.110140	diff	60	diff	1	7911
AL	84	18	F	PSYC4802-20142	1.0	Block	exp	37	20140428.110150	diff	20	diff	1	7853
AL	84	18	F	PSYC4802-20142	1.0	Block	exp	38	20140428.110200	diff	20	diff	1	8451
AL	84	18	F	PSYC4802-20142	1.0	Block	exp	39	20140428.110211	same	20	same	1	5954
AL	84	18	F	PSYC4802-20142	1.0	Block	exp	40	20140428.110219	diff	20	diff	1	8790
AL	84	18	F	PSYC4802-20142	1.0	Block	exp	41	20140428.110229	same	60	same	1	14708
AL	84	18	F	PSYC4802-20142	1.0	Block	exp	42	20140428.110246	same	60	same	1	8719
AL	84	18	F	PSYC4802-20142	1.0	Block	exp	43	20140428.110257	diff	60	diff	1	2714
AL	84	18	F	PSYC4802-20142	1.0	Block	exp	44	20140428.110302	same	100	same	1	6083
AL	84	18	F	PSYC4802-20142	1.0	Block	exp	45	20140428.110310	same	100	same	1	8767
AL	84	18	F	PSYC4802-20142	1.0	Block	exp	46	20140428.110321	same	60	same	1	5450
AL	84	18	F	PSYC4802-20142	1.0	Block	exp	47	20140428.110328	same	100	diff	0	1835
AL	84	18	F	PSYC4802-20142	1.0	Block	exp	48	20140428.110332	same	20	same	1	5661
AL	84	18	F	PSYC4802-20142	1.0	Block	exp	49	20140428.110340	same	60	same	1	5081
AL	84	18	F	PSYC4802-20142	1.0	Block	exp	50	20140428.110347	diff	100	diff	1	4331
AL	84	18	F	PSYC4802-20142	1.0	Block	exp	51	20140428.110402	diff	100	diff	1	3312
AL	84	18	F	PSYC4802-20142	1.0	Block	exp	52	20140428.110407	diff	20	diff	1	4448
AL	84	18	F	PSYC4802-20142	1.0	Block	exp	53	20140428.110414	same	20	same	1	4923
AL	84	18	F	PSYC4802-20142	1.0	Block	exp	54	20140428.110421	same	100	same	1	4156
AL	84	18	F	PSYC4802-20142	1.0	Block	exp	55	20140428.110427	diff	100	diff	1	6552
AL	84	18	F	PSYC4802-20142	1.0	Block	exp	56	20140428.110436	diff	60	diff	1	5697
AL	84	18	F	PSYC4802-20142	1.0	Block	exp	57	20140428.110443	diff	20	diff	1	4161
AL	84	18	F	PSYC4802-20142	1.0	Block	exp	58	20140428.110449	diff	20	diff	1	5502
AL	84	18	F	PSYC4802-20142	1.0	Block	exp	59	20140428.110457	same	60	same	1	7319
AL	84	18	F	PSYC4802-20142	1.0	Block	exp	60	20140428.110506	diff	100	diff	1	3587
AL	84	18	F	PSYC4802-20142	1.0	Block	exp	61	20140428.110512	diff	20	diff	1	3797
AL	84	18	F	PSYC4802-20142	1.0	Block	exp	62	20140428.110518	diff	100	diff	1	13969
AL	84	18	F	PSYC4802-20142	1.0	Block	exp	63	20140428.110534	diff	60	diff	1	10612
AL	84	18	F	PSYC4802-20142	1.0	Block	exp	64	20140428.110546	diff	60	diff	1	3382
AL	84	18	F	PSYC4802-20142	1.0	Block	exp	65	20140428.110552	same	20	same	1	6558
AL	84	18	F	PSYC4802-20142	1.0	Block	exp	66	20140428.110600	same	100	same	1	12716
AL	84	18	F	PSYC4802-20142	1.0	Block	exp	67	20140428.110615	diff	100	diff	1	3522
AL	84	18	F	PSYC4802-20142	1.0	Block	exp	68	20140428.110621	same	100	same	1	5801
AL	84	18	F	PSYC4802-20142	1.0	Block	exp	69	20140428.110629	same	100	same	1	9101
AL	84	18	F	PSYC4802-20142	1.0	Block	exp	70	20140428.110640	diff	20	diff	1	5169
AL	84	18	F	PSYC4802-20142	1.0	Block	exp	71	20140428.110647	diff	100	diff	1	6218
AL	84	18	F	PSYC4802-20142	1.0	Block	exp	72	20140428.110655	same	100	diff	0	7038
AL	84	18	F	PSYC4802-20142	1.0	Block	exp	73	20140428.110704	diff	60	same	0	3634
AL	84	18	F	PSYC4802-20142	1.0	Block	exp	74	20140428.110710	same	60	same	1	5122
AL	84	18	F	PSYC4802-20142	1.0	Block	exp	75	20140428.110717	diff	20	diff	1	11614
AL	84	18	F	PSYC4802-20142	1.0	Block	exp	76	20140428.110731	diff	60	diff	1	3938
AL	84	18	F	PSYC4802-20142	1.0	Block	exp	77	20140428.110737	same	20	same	1	4091
AL	84	18	F	PSYC4802-20142	1.0	Block	exp	78	20140428.110743	diff	60	diff	1	3188
AL	84	18	F	PSYC4802-20142	1.0	Block	exp	79	20140428.110748	diff	100	diff	1	4524
AL	84	18	F	PSYC4802-20142	1.0	Block	exp	80	20140428.110754	same	20	same	1	6352
AL	84	18	F	PSYC4802-20142	1.0	Block	exp	81	20140428.110803	same	20	same	1	4067
AL	84	18	F	PSYC4802-20142	1.0	Block	exp	82	20140428.110809	diff	60	diff	1	2936
AL	84	18	F	PSYC4802-20142	1.0	Block	exp	83	20140428.110814	same	100	same	1	8292
AL	84	18	F	PSYC4802-20142	1.0	Block	exp	84	20140428.110824	same	60	same	1	7724
AL	84	18	F	PSYC4802-20142	1.0	Block	exp	85	20140428.110834	same	20	same	1	7466
AL	84	18	F	PSYC4802-20142	1.0	Block	exp	86	20140428.110844	diff	20	diff	1	4203
AL	84	18	F	PSYC4802-20142	1.0	Block	exp	87	20140428.110850	diff	60	diff	1	4934
AL	84	18	F	PSYC4802-20142	1.0	Block	exp	88	20140428.110857	same	20	same	1	3148
AL	84	18	F	PSYC4802-20142	1.0	Block	exp	89	20140428.110902	same	60	same	1	9681
AL	84	18	F	PSYC4802-20142	1.0	Block	exp	90	20140428.110914	diff	100	same	0	3475
AL	84	18	F	PSYC4802-20142	1.0	Block	exp	91	20140428.110919	diff	100	diff	1	3962
AL	84	18	F	PSYC4802-20142	1.0	Block	exp	92	20140428.110925	same	60	same	1	11098
AL	84	18	F	PSYC4802-20142	1.0	Block	exp	93	20140428.110938	diff	100	diff	1	3523
AL	84	18	F	PSYC4802-20142	1.0	Block	exp	94	20140428.110944	diff	20	diff	1	9235
AL	84	18	F	PSYC4802-20142	1.0	Block	exp	95	20140428.110955	diff	20	diff	1	3276
AL	84	18	F	PSYC4802-20142	1.0	Block	exp	96	20140428.111000	diff	100	diff	1	3177
AL	84	18	F	PSYC4802-20142	1.0	Block	exp	97	20140428.111005	same	100	same	1	11714
AL	84	18	F	PSYC4802-20142	1.0	Block	exp	98	20140428.111019	same	60	same	1	7266
AL	84	18	F	PSYC4802-20142	1.0	Block	exp	99	20140428.111028	diff	60	diff	1	6815
AL	84	18	F	PSYC4802-20142	1.0	Block	exp	100	20140428.111037	same	60	same	1	4026
AL	84	18	F	PSYC4802-20142	1.0	Block	exp	101	20140428.111053	diff	100	diff	1	3979
AL	84	18	F	PSYC4802-20142	1.0	Block	exp	102	20140428.111059	same	100	same	1	3282
AL	84	18	F	PSYC4802-20142	1.0	Block	exp	103	20140428.111105	same	100	diff	0	6904
AL	84	18	F	PSYC4802-20142	1.0	Block	exp	104	20140428.111114	diff	60	diff	1	5626
AL	84	18	F	PSYC4802-20142	1.0	Block	exp	105	20140428.111121	same	20	same	1	4847
AL	84	18	F	PSYC4802-20142	1.0	Block	exp	106	20140428.111128	diff	100	diff	1	3165
AL	84	18	F	PSYC4802-20142	1.0	Block	exp	107	20140428.111133	same	60	same	1	6628
AL	84	18	F	PSYC4802-20142	1.0	Block	exp	108	20140428.111142	diff	100	diff	1	3194
AL	84	18	F	PSYC4802-20142	1.0	Block	exp	109	20140428.111147	same	20	same	1	2468
AL	84	18	F	PSYC4802-20142	1.0	Block	exp	110	20140428.111152	same	60	same	1	3329
AL	84	18	F	PSYC4802-20142	1.0	Block	exp	111	20140428.111157	same	100	same	1	4894
AL	84	18	F	PSYC4802-20142	1.0	Block	exp	112	20140428.111204	diff	20	diff	1	9013
AL	84	18	F	PSYC4802-20142	1.0	Block	exp	113	20140428.111215	diff	100	diff	1	3569
AL	84	18	F	PSYC4802-20142	1.0	Block	exp	114	20140428.111221	diff	60	diff	1	4425
AL	84	18	F	PSYC4802-20142	1.0	Block	exp	115	20140428.111227	same	100	same	1	9312
AL	84	18	F	PSYC4802-20142	1.0	Block	exp	116	20140428.111238	diff	20	diff	1	2861
AL	84	18	F	PSYC4802-20142	1.0	Block	exp	117	20140428.111243	same	20	same	1	2895
AL	84	18	F	PSYC4802-20142	1.0	Block	exp	118	20140428.111248	same	60	same	1	5432
AL	84	18	F	PSYC4802-20142	1.0	Block	exp	119	20140428.111256	same	60	same	1	3428
AL	84	18	F	PSYC4802-20142	1.0	Block	exp	120	20140428.111301	same	60	same	1	4764
AL	84	18	F	PSYC4802-20142	1.0	Block	exp	121	20140428.111308	diff	60	diff	1	5550
AL	84	18	F	PSYC4802-20142	1.0	Block	exp	122	20140428.111315	diff	60	same	0	5239
AL	84	18	F	PSYC4802-20142	1.0	Block	exp	123	20140428.111323	diff	60	diff	1	5122
AL	84	18	F	PSYC4802-20142	1.0	Block	exp	124	20140428.111330	diff	20	same	0	4577
AL	84	18	F	PSYC4802-20142	1.0	Block	exp	125	20140428.111336	diff	100	diff	1	5146
AL	84	18	F	PSYC4802-20142	1.0	Block	exp	126	20140428.111343	same	100	same	1	3347
AL	84	18	F	PSYC4802-20142	1.0	Block	exp	127	20140428.111349	same	60	same	1	3617
AL	84	18	F	PSYC4802-20142	1.0	Block	exp	128	20140428.111355	diff	100	diff	1	2644
AL	84	18	F	PSYC4802-20142	1.0	Block	exp	129	20140428.111359	diff	100	diff	1	3341
AL	84	18	F	PSYC4802-20142	1.0	Block	exp	130	20140428.111405	same	20	same	1	4091
AL	84	18	F	PSYC4802-20142	1.0	Block	exp	131	20140428.111411	same	60	same	1	6352
AL	84	18	F	PSYC4802-20142	1.0	Block	exp	132	20140428.111419	diff	100	diff	1	3452
AL	84	18	F	PSYC4802-20142	1.0	Block	exp	133	20140428.111424	diff	60	diff	1	3552
AL	84	18	F	PSYC4802-20142	1.0	Block	exp	134	20140428.111430	diff	20	diff	1	3235
AL	84	18	F	PSYC4802-20142	1.0	Block	exp	135	20140428.111435	same	20	same	1	4150
AL	84	18	F	PSYC4802-20142	1.0	Block	exp	136	20140428.111441	same	60	same	1	6124
AL	84	18	F	PSYC4802-20142	1.0	Block	exp	137	20140428.111450	same	20	same	1	4167
AL	84	18	F	PSYC4802-20142	1.0	Block	exp	138	20140428.111456	same	60	same	1	4097
AL	84	18	F	PSYC4802-20142	1.0	Block	exp	139	20140428.111502	same	20	same	1	2855
AL	84	18	F	PSYC4802-20142	1.0	Block	exp	140	20140428.111507	diff	60	same	0	5380
AL	84	18	F	PSYC4802-20142	1.0	Block	exp	141	20140428.111514	same	100	same	1	4923
AL	84	18	F	PSYC4802-20142	1.0	Block	exp	142	20140428.111521	same	20	same	1	2896
AL	84	18	F	PSYC4802-20142	1.0	Block	exp	143	20140428.111526	same	20	same	1	2568
AL	84	18	F	PSYC4802-20142	1.0	Block	exp	144	20140428.111531	diff	60	diff	1	2643
AL	84	18	F	PSYC4802-20142	1.0	Block	exp	145	20140428.111535	diff	20	diff	1	6054
AL	84	18	F	PSYC4802-20142	1.0	Block	exp	146	20140428.111543	diff	60	diff	1	3476
AL	84	18	F	PSYC4802-20142	1.0	Block	exp	147	20140428.111549	same	20	same	1	3950
AL	84	18	F	PSYC4802-20142	1.0	Block	exp	148	20140428.111555	same	100	same	1	12001
AL	84	18	F	PSYC4802-20142	1.0	Block	exp	149	20140428.111609	same	20	same	1	2702
AL	84	18	F	PSYC4802-20142	1.0	Block	exp	150	20140428.111614	same	100	same	1	5005
