Experimenter	Subject	Age	Sex	Experiment	Version	Block	TrialType	Trial	Timestamp	SameDiff	Rotation	Response	Acc	RT
SH	236	22	f	PSYC4802-20144	1.0	Block	practice	1	20141015.104852	diff	100	same	0	11417
SH	236	22	f	PSYC4802-20144	1.0	Block	practice	2	20141015.104906	diff	60	same	0	13056
SH	236	22	f	PSYC4802-20144	1.0	Block	practice	3	20141015.104921	same	60	same	1	11852
SH	236	22	f	PSYC4802-20144	1.0	Block	practice	4	20141015.104935	diff	60	diff	1	15072
SH	236	22	f	PSYC4802-20144	1.0	Block	practice	5	20141015.104952	same	20	same	1	15326
SH	236	22	f	PSYC4802-20144	1.0	Block	practice	6	20141015.105009	same	60	same	1	7276
SH	236	22	f	PSYC4802-20144	1.0	Block	practice	7	20141015.105018	same	20	same	1	6502
SH	236	22	f	PSYC4802-20144	1.0	Block	practice	8	20141015.105027	same	20	same	1	5852
SH	236	22	f	PSYC4802-20144	1.0	Block	practice	9	20141015.105035	diff	100	diff	1	8837
SH	236	22	f	PSYC4802-20144	1.0	Block	practice	10	20141015.105046	same	100	88	-3	11696
SH	236	22	f	PSYC4802-20144	1.0	Block	practice	11	20141015.105059	diff	100	same	0	9282
SH	236	22	f	PSYC4802-20144	1.0	Block	practice	12	20141015.105110	same	20	same	1	6812
SH	236	22	f	PSYC4802-20144	1.0	Block	practice	13	20141015.105119	same	100	same	1	12203
SH	236	22	f	PSYC4802-20144	1.0	Block	practice	14	20141015.105134	diff	20	same	0	8742
SH	236	22	f	PSYC4802-20144	1.0	Block	practice	15	20141015.105144	diff	100	same	0	3921
SH	236	22	f	PSYC4802-20144	1.0	Block	practice	16	20141015.105150	diff	20	same	0	10052
SH	236	22	f	PSYC4802-20144	1.0	Block	practice	17	20141015.105202	diff	20	same	0	13682
SH	236	22	f	PSYC4802-20144	1.0	Block	practice	18	20141015.105218	same	20	same	1	7146
SH	236	22	f	PSYC4802-20144	1.0	Block	practice	19	20141015.105227	diff	20	diff	1	31808
SH	236	22	f	PSYC4802-20144	1.0	Block	practice	20	20141015.105301	diff	20	diff	1	12547
SH	236	22	f	PSYC4802-20144	1.0	Block	practice	21	20141015.105315	same	60	same	1	7607
SH	236	22	f	PSYC4802-20144	1.0	Block	practice	22	20141015.105325	diff	60	same	0	13131
SH	236	22	f	PSYC4802-20144	1.0	Block	practice	23	20141015.105340	diff	60	diff	1	16702
SH	236	22	f	PSYC4802-20144	1.0	Block	practice	24	20141015.105359	same	100	same	1	13512
SH	236	22	f	PSYC4802-20144	1.0	Block	practice	25	20141015.105414	diff	60	diff	1	27862
SH	236	22	f	PSYC4802-20144	1.0	Block	practice	26	20141015.105444	diff	100	diff	1	12172
SH	236	22	f	PSYC4802-20144	1.0	Block	practice	27	20141015.105458	same	60	diff	0	22777
SH	236	22	f	PSYC4802-20144	1.0	Block	practice	28	20141015.105523	same	100	diff	0	11361
SH	236	22	f	PSYC4802-20144	1.0	Block	practice	29	20141015.105536	same	100	same	1	18562
SH	236	22	f	PSYC4802-20144	1.0	Block	practice	30	20141015.105557	same	60	same	1	5676
SH	236	22	f	PSYC4802-20144	1.0	Block	exp	31	20141015.105605	diff	20	same	0	26222
SH	236	22	f	PSYC4802-20144	1.0	Block	exp	32	20141015.105633	diff	100	diff	1	27113
SH	236	22	f	PSYC4802-20144	1.0	Block	exp	33	20141015.105702	same	100	same	1	22298
SH	236	22	f	PSYC4802-20144	1.0	Block	exp	34	20141015.105726	same	20	same	1	6287
SH	236	22	f	PSYC4802-20144	1.0	Block	exp	35	20141015.105735	same	100	same	1	12342
SH	236	22	f	PSYC4802-20144	1.0	Block	exp	36	20141015.105749	same	100	same	1	12322
SH	236	22	f	PSYC4802-20144	1.0	Block	exp	37	20141015.105803	diff	60	same	0	10036
SH	236	22	f	PSYC4802-20144	1.0	Block	exp	38	20141015.105815	same	60	same	1	4932
SH	236	22	f	PSYC4802-20144	1.0	Block	exp	39	20141015.105822	diff	100	same	0	6826
SH	236	22	f	PSYC4802-20144	1.0	Block	exp	40	20141015.105831	same	20	same	1	3551
SH	236	22	f	PSYC4802-20144	1.0	Block	exp	41	20141015.105837	diff	100	same	0	6887
SH	236	22	f	PSYC4802-20144	1.0	Block	exp	42	20141015.105846	same	100	same	1	6956
SH	236	22	f	PSYC4802-20144	1.0	Block	exp	43	20141015.105855	diff	60	same	0	11451
SH	236	22	f	PSYC4802-20144	1.0	Block	exp	44	20141015.105908	diff	20	same	0	14426
SH	236	22	f	PSYC4802-20144	1.0	Block	exp	45	20141015.105925	same	100	same	1	6731
SH	236	22	f	PSYC4802-20144	1.0	Block	exp	46	20141015.105933	diff	60	same	0	7756
SH	236	22	f	PSYC4802-20144	1.0	Block	exp	47	20141015.105943	diff	20	diff	1	10742
SH	236	22	f	PSYC4802-20144	1.0	Block	exp	48	20141015.105956	same	20	same	1	6341
SH	236	22	f	PSYC4802-20144	1.0	Block	exp	49	20141015.110004	same	20	same	1	3011
SH	236	22	f	PSYC4802-20144	1.0	Block	exp	50	20141015.110009	diff	60	diff	1	6702
SH	236	22	f	PSYC4802-20144	1.0	Block	exp	51	20141015.110030	diff	100	same	0	10797
SH	236	22	f	PSYC4802-20144	1.0	Block	exp	52	20141015.110043	diff	100	same	0	15502
SH	236	22	f	PSYC4802-20144	1.0	Block	exp	53	20141015.110101	same	60	same	1	14537
SH	236	22	f	PSYC4802-20144	1.0	Block	exp	54	20141015.110117	diff	20	same	0	13827
SH	236	22	f	PSYC4802-20144	1.0	Block	exp	55	20141015.110133	diff	100	diff	1	14912
SH	236	22	f	PSYC4802-20144	1.0	Block	exp	56	20141015.110150	diff	60	diff	1	19907
SH	236	22	f	PSYC4802-20144	1.0	Block	exp	57	20141015.110212	diff	100	diff	1	4207
SH	236	22	f	PSYC4802-20144	1.0	Block	exp	58	20141015.110218	diff	60	diff	1	6891
SH	236	22	f	PSYC4802-20144	1.0	Block	exp	59	20141015.110227	same	60	diff	0	9421
SH	236	22	f	PSYC4802-20144	1.0	Block	exp	60	20141015.110239	same	20	same	1	5886
SH	236	22	f	PSYC4802-20144	1.0	Block	exp	61	20141015.110247	same	60	same	1	11521
SH	236	22	f	PSYC4802-20144	1.0	Block	exp	62	20141015.110300	diff	60	diff	1	17797
SH	236	22	f	PSYC4802-20144	1.0	Block	exp	63	20141015.110320	same	20	same	1	6362
SH	236	22	f	PSYC4802-20144	1.0	Block	exp	64	20141015.110328	diff	20	diff	1	17161
SH	236	22	f	PSYC4802-20144	1.0	Block	exp	65	20141015.110348	diff	100	diff	1	16057
SH	236	22	f	PSYC4802-20144	1.0	Block	exp	66	20141015.110406	same	20	same	1	6326
SH	236	22	f	PSYC4802-20144	1.0	Block	exp	67	20141015.110414	same	60	same	1	6106
SH	236	22	f	PSYC4802-20144	1.0	Block	exp	68	20141015.110422	same	20	same	1	4452
SH	236	22	f	PSYC4802-20144	1.0	Block	exp	69	20141015.110429	same	60	same	1	6976
SH	236	22	f	PSYC4802-20144	1.0	Block	exp	70	20141015.110438	diff	60	same	0	14262
SH	236	22	f	PSYC4802-20144	1.0	Block	exp	71	20141015.110454	same	60	same	1	10677
SH	236	22	f	PSYC4802-20144	1.0	Block	exp	72	20141015.110507	diff	20	same	0	10067
SH	236	22	f	PSYC4802-20144	1.0	Block	exp	73	20141015.110519	same	20	same	1	5491
SH	236	22	f	PSYC4802-20144	1.0	Block	exp	74	20141015.110526	same	100	diff	0	15337
SH	236	22	f	PSYC4802-20144	1.0	Block	exp	75	20141015.110544	diff	60	same	0	21788
SH	236	22	f	PSYC4802-20144	1.0	Block	exp	76	20141015.110608	diff	100	diff	1	12966
SH	236	22	f	PSYC4802-20144	1.0	Block	exp	77	20141015.110622	same	100	same	1	20427
SH	236	22	f	PSYC4802-20144	1.0	Block	exp	78	20141015.110645	same	20	same	1	4136
SH	236	22	f	PSYC4802-20144	1.0	Block	exp	79	20141015.110651	same	100	same	1	12337
SH	236	22	f	PSYC4802-20144	1.0	Block	exp	80	20141015.110705	same	20	same	1	4646
SH	236	22	f	PSYC4802-20144	1.0	Block	exp	81	20141015.110712	same	60	same	1	6256
SH	236	22	f	PSYC4802-20144	1.0	Block	exp	82	20141015.110720	diff	60	same	0	24703
SH	236	22	f	PSYC4802-20144	1.0	Block	exp	83	20141015.110747	diff	100	same	0	5512
SH	236	22	f	PSYC4802-20144	1.0	Block	exp	84	20141015.110755	diff	100	diff	1	17958
SH	236	22	f	PSYC4802-20144	1.0	Block	exp	85	20141015.110815	same	100	diff	0	15067
SH	236	22	f	PSYC4802-20144	1.0	Block	exp	86	20141015.110832	diff	20	same	0	9512
SH	236	22	f	PSYC4802-20144	1.0	Block	exp	87	20141015.110843	same	60	same	1	11292
SH	236	22	f	PSYC4802-20144	1.0	Block	exp	88	20141015.110857	same	100	same	1	13066
SH	236	22	f	PSYC4802-20144	1.0	Block	exp	89	20141015.110912	diff	60	diff	1	7516
SH	236	22	f	PSYC4802-20144	1.0	Block	exp	90	20141015.110921	same	60	same	1	4542
SH	236	22	f	PSYC4802-20144	1.0	Block	exp	91	20141015.110928	same	60	same	1	12857
SH	236	22	f	PSYC4802-20144	1.0	Block	exp	92	20141015.110943	same	60	same	1	5057
SH	236	22	f	PSYC4802-20144	1.0	Block	exp	93	20141015.110950	diff	60	same	0	4736
SH	236	22	f	PSYC4802-20144	1.0	Block	exp	94	20141015.110957	diff	20	same	0	11851
SH	236	22	f	PSYC4802-20144	1.0	Block	exp	95	20141015.111011	same	60	same	1	6102
SH	236	22	f	PSYC4802-20144	1.0	Block	exp	96	20141015.111019	same	20	same	1	5162
SH	236	22	f	PSYC4802-20144	1.0	Block	exp	97	20141015.111026	diff	20	diff	1	8327
SH	236	22	f	PSYC4802-20144	1.0	Block	exp	98	20141015.111036	diff	20	same	0	17637
SH	236	22	f	PSYC4802-20144	1.0	Block	exp	99	20141015.111056	same	60	same	1	7271
SH	236	22	f	PSYC4802-20144	1.0	Block	exp	100	20141015.111105	same	100	same	1	6401
SH	236	22	f	PSYC4802-20144	1.0	Block	exp	101	20141015.111132	same	60	same	1	6981
SH	236	22	f	PSYC4802-20144	1.0	Block	exp	102	20141015.111141	diff	100	diff	1	12692
SH	236	22	f	PSYC4802-20144	1.0	Block	exp	103	20141015.111155	diff	60	diff	1	12501
SH	236	22	f	PSYC4802-20144	1.0	Block	exp	104	20141015.111210	diff	100	diff	1	10766
SH	236	22	f	PSYC4802-20144	1.0	Block	exp	105	20141015.111223	same	20	same	1	4761
SH	236	22	f	PSYC4802-20144	1.0	Block	exp	106	20141015.111230	diff	20	diff	1	8676
SH	236	22	f	PSYC4802-20144	1.0	Block	exp	107	20141015.111240	diff	100	same	0	5016
SH	236	22	f	PSYC4802-20144	1.0	Block	exp	108	20141015.111247	diff	100	same	0	9097
SH	236	22	f	PSYC4802-20144	1.0	Block	exp	109	20141015.111258	same	100	diff	0	11151
SH	236	22	f	PSYC4802-20144	1.0	Block	exp	110	20141015.111312	same	60	same	1	7542
SH	236	22	f	PSYC4802-20144	1.0	Block	exp	111	20141015.111321	diff	20	diff	1	15082
SH	236	22	f	PSYC4802-20144	1.0	Block	exp	112	20141015.111338	same	100	same	1	5546
SH	236	22	f	PSYC4802-20144	1.0	Block	exp	113	20141015.111346	same	100	same	1	10336
SH	236	22	f	PSYC4802-20144	1.0	Block	exp	114	20141015.111358	diff	20	same	0	10007
SH	236	22	f	PSYC4802-20144	1.0	Block	exp	115	20141015.111410	diff	60	same	0	5426
SH	236	22	f	PSYC4802-20144	1.0	Block	exp	116	20141015.111418	same	20	same	1	4141
SH	236	22	f	PSYC4802-20144	1.0	Block	exp	117	20141015.111424	same	60	same	1	5782
SH	236	22	f	PSYC4802-20144	1.0	Block	exp	118	20141015.111432	same	20	same	1	3166
SH	236	22	f	PSYC4802-20144	1.0	Block	exp	119	20141015.111437	diff	60	same	0	3746
SH	236	22	f	PSYC4802-20144	1.0	Block	exp	120	20141015.111443	same	60	same	1	11202
SH	236	22	f	PSYC4802-20144	1.0	Block	exp	121	20141015.111456	diff	100	diff	1	10737
SH	236	22	f	PSYC4802-20144	1.0	Block	exp	122	20141015.111509	same	100	diff	0	9921
SH	236	22	f	PSYC4802-20144	1.0	Block	exp	123	20141015.111521	diff	20	diff	1	8377
SH	236	22	f	PSYC4802-20144	1.0	Block	exp	124	20141015.111531	diff	60	same	0	9582
SH	236	22	f	PSYC4802-20144	1.0	Block	exp	125	20141015.111543	same	20	same	1	3386
SH	236	22	f	PSYC4802-20144	1.0	Block	exp	126	20141015.111548	diff	60	same	0	4592
SH	236	22	f	PSYC4802-20144	1.0	Block	exp	127	20141015.111555	diff	20	diff	1	5102
SH	236	22	f	PSYC4802-20144	1.0	Block	exp	128	20141015.111602	diff	100	same	0	10636
SH	236	22	f	PSYC4802-20144	1.0	Block	exp	129	20141015.111614	diff	100	diff	1	6081
SH	236	22	f	PSYC4802-20144	1.0	Block	exp	130	20141015.111622	same	20	same	1	5666
SH	236	22	f	PSYC4802-20144	1.0	Block	exp	131	20141015.111630	same	60	same	1	5111
SH	236	22	f	PSYC4802-20144	1.0	Block	exp	132	20141015.111637	same	100	same	1	12717
SH	236	22	f	PSYC4802-20144	1.0	Block	exp	133	20141015.111652	same	100	same	1	5886
SH	236	22	f	PSYC4802-20144	1.0	Block	exp	134	20141015.111700	diff	100	same	0	4606
SH	236	22	f	PSYC4802-20144	1.0	Block	exp	135	20141015.111706	diff	20	same	0	5176
SH	236	22	f	PSYC4802-20144	1.0	Block	exp	136	20141015.111714	diff	100	diff	1	14942
SH	236	22	f	PSYC4802-20144	1.0	Block	exp	137	20141015.111731	diff	60	same	0	14402
SH	236	22	f	PSYC4802-20144	1.0	Block	exp	138	20141015.111747	diff	20	same	0	9371
SH	236	22	f	PSYC4802-20144	1.0	Block	exp	139	20141015.111758	diff	20	same	0	5791
SH	236	22	f	PSYC4802-20144	1.0	Block	exp	140	20141015.111806	same	100	diff	0	11172
SH	236	22	f	PSYC4802-20144	1.0	Block	exp	141	20141015.111819	same	20	same	1	5411
SH	236	22	f	PSYC4802-20144	1.0	Block	exp	142	20141015.111827	diff	20	same	0	7516
SH	236	22	f	PSYC4802-20144	1.0	Block	exp	143	20141015.111836	same	20	same	1	3116
SH	236	22	f	PSYC4802-20144	1.0	Block	exp	144	20141015.111841	same	100	same	1	4887
SH	236	22	f	PSYC4802-20144	1.0	Block	exp	145	20141015.111848	diff	60	diff	1	5951
SH	236	22	f	PSYC4802-20144	1.0	Block	exp	146	20141015.111856	same	20	same	1	4566
SH	236	22	f	PSYC4802-20144	1.0	Block	exp	147	20141015.111903	same	60	same	1	5841
SH	236	22	f	PSYC4802-20144	1.0	Block	exp	148	20141015.111911	same	100	diff	0	4177
SH	236	22	f	PSYC4802-20144	1.0	Block	exp	149	20141015.111917	diff	20	same	0	2406
SH	236	22	f	PSYC4802-20144	1.0	Block	exp	150	20141015.111921	diff	60	same	0	3341
