Experimenter	Subject	Age	Sex	Experiment	Version	Block	TrialType	Trial	Timestamp	SameDiff	Rotation	Response	Acc	RT
ZE	278	20	F	PSYC4802-20144	1.0.1	Block	practice	1	20141022.115549	same	20	same	1	132753
ZE	278	20	F	PSYC4802-20144	1.0.1	Block	practice	2	20141022.115804	diff	100	diff	1	5321
ZE	278	20	F	PSYC4802-20144	1.0.1	Block	practice	3	20141022.115812	same	100	diff	0	3086
ZE	278	20	F	PSYC4802-20144	1.0.1	Block	practice	4	20141022.115817	diff	20	same	0	8211
ZE	278	20	F	PSYC4802-20144	1.0.1	Block	practice	5	20141022.115827	diff	100	same	0	6756
ZE	278	20	F	PSYC4802-20144	1.0.1	Block	practice	6	20141022.115836	diff	60	diff	1	6021
ZE	278	20	F	PSYC4802-20144	1.0.1	Block	practice	7	20141022.115844	same	60	diff	0	3107
ZE	278	20	F	PSYC4802-20144	1.0.1	Block	practice	8	20141022.115849	same	20	same	1	4141
ZE	278	20	F	PSYC4802-20144	1.0.1	Block	practice	9	20141022.115855	same	60	same	1	5317
ZE	278	20	F	PSYC4802-20144	1.0.1	Block	practice	10	20141022.115902	diff	100	diff	1	4761
ZE	278	20	F	PSYC4802-20144	1.0.1	Block	practice	11	20141022.115909	same	100	diff	0	3201
ZE	278	20	F	PSYC4802-20144	1.0.1	Block	practice	12	20141022.115914	diff	60	diff	1	3231
ZE	278	20	F	PSYC4802-20144	1.0.1	Block	practice	13	20141022.115920	same	20	same	1	3106
ZE	278	20	F	PSYC4802-20144	1.0.1	Block	practice	14	20141022.115925	diff	100	same	0	4766
ZE	278	20	F	PSYC4802-20144	1.0.1	Block	practice	15	20141022.115932	same	20	same	1	5116
ZE	278	20	F	PSYC4802-20144	1.0.1	Block	practice	16	20141022.115939	diff	60	diff	1	4221
ZE	278	20	F	PSYC4802-20144	1.0.1	Block	practice	17	20141022.115945	same	20	diff	0	2836
ZE	278	20	F	PSYC4802-20144	1.0.1	Block	practice	18	20141022.115950	diff	20	diff	1	1817
ZE	278	20	F	PSYC4802-20144	1.0.1	Block	practice	19	20141022.115954	diff	20	same	0	5241
ZE	278	20	F	PSYC4802-20144	1.0.1	Block	practice	20	20141022.120001	diff	20	diff	1	13627
ZE	278	20	F	PSYC4802-20144	1.0.1	Block	practice	21	20141022.120017	same	60	same	1	3341
ZE	278	20	F	PSYC4802-20144	1.0.1	Block	practice	22	20141022.120022	same	100	diff	0	1561
ZE	278	20	F	PSYC4802-20144	1.0.1	Block	practice	23	20141022.120026	diff	100	39	-3	7671
ZE	278	20	F	PSYC4802-20144	1.0.1	Block	practice	24	20141022.120035	same	100	diff	0	4781
ZE	278	20	F	PSYC4802-20144	1.0.1	Block	practice	25	20141022.120042	diff	20	same	0	8442
ZE	278	20	F	PSYC4802-20144	1.0.1	Block	practice	26	20141022.120053	diff	60	same	0	6876
ZE	278	20	F	PSYC4802-20144	1.0.1	Block	practice	27	20141022.120102	same	60	diff	0	6806
ZE	278	20	F	PSYC4802-20144	1.0.1	Block	practice	28	20141022.120111	diff	60	diff	1	3436
ZE	278	20	F	PSYC4802-20144	1.0.1	Block	practice	29	20141022.120116	same	100	diff	0	4181
ZE	278	20	F	PSYC4802-20144	1.0.1	Block	practice	30	20141022.120122	same	60	diff	0	6082
ZE	278	20	F	PSYC4802-20144	1.0.1	Block	exp	31	20141022.120130	diff	100	diff	1	8776
ZE	278	20	F	PSYC4802-20144	1.0.1	Block	exp	32	20141022.120141	same	20	same	1	3421
ZE	278	20	F	PSYC4802-20144	1.0.1	Block	exp	33	20141022.120147	same	100	diff	0	2511
ZE	278	20	F	PSYC4802-20144	1.0.1	Block	exp	34	20141022.120151	diff	60	same	0	4881
ZE	278	20	F	PSYC4802-20144	1.0.1	Block	exp	35	20141022.120158	same	20	same	1	3806
ZE	278	20	F	PSYC4802-20144	1.0.1	Block	exp	36	20141022.120204	same	20	same	1	3336
ZE	278	20	F	PSYC4802-20144	1.0.1	Block	exp	37	20141022.120209	diff	60	diff	1	2691
ZE	278	20	F	PSYC4802-20144	1.0.1	Block	exp	38	20141022.120214	diff	60	diff	1	2501
ZE	278	20	F	PSYC4802-20144	1.0.1	Block	exp	39	20141022.120219	diff	100	diff	1	2911
ZE	278	20	F	PSYC4802-20144	1.0.1	Block	exp	40	20141022.120224	same	60	diff	0	3551
ZE	278	20	F	PSYC4802-20144	1.0.1	Block	exp	41	20141022.120229	same	60	same	1	3941
ZE	278	20	F	PSYC4802-20144	1.0.1	Block	exp	42	20141022.120235	diff	20	same	0	4737
ZE	278	20	F	PSYC4802-20144	1.0.1	Block	exp	43	20141022.120242	same	20	same	1	4731
ZE	278	20	F	PSYC4802-20144	1.0.1	Block	exp	44	20141022.120249	diff	100	same	0	5917
ZE	278	20	F	PSYC4802-20144	1.0.1	Block	exp	45	20141022.120257	same	20	diff	0	3066
ZE	278	20	F	PSYC4802-20144	1.0.1	Block	exp	46	20141022.120302	same	60	same	1	6597
ZE	278	20	F	PSYC4802-20144	1.0.1	Block	exp	47	20141022.120311	diff	60	same	0	8641
ZE	278	20	F	PSYC4802-20144	1.0.1	Block	exp	48	20141022.120321	same	20	same	1	3751
ZE	278	20	F	PSYC4802-20144	1.0.1	Block	exp	49	20141022.120327	diff	20	diff	1	7551
ZE	278	20	F	PSYC4802-20144	1.0.1	Block	exp	50	20141022.120337	same	20	same	1	7236
ZE	278	20	F	PSYC4802-20144	1.0.1	Block	exp	51	20141022.120353	diff	20	same	0	4627
ZE	278	20	F	PSYC4802-20144	1.0.1	Block	exp	52	20141022.120359	same	20	same	1	4786
ZE	278	20	F	PSYC4802-20144	1.0.1	Block	exp	53	20141022.120406	same	60	diff	0	6117
ZE	278	20	F	PSYC4802-20144	1.0.1	Block	exp	54	20141022.120414	diff	100	same	0	8743
ZE	278	20	F	PSYC4802-20144	1.0.1	Block	exp	55	20141022.120425	same	20	same	1	4452
ZE	278	20	F	PSYC4802-20144	1.0.1	Block	exp	56	20141022.120432	diff	100	diff	1	6922
ZE	278	20	F	PSYC4802-20144	1.0.1	Block	exp	57	20141022.120441	same	20	same	1	3896
ZE	278	20	F	PSYC4802-20144	1.0.1	Block	exp	58	20141022.120446	same	20	same	1	4656
ZE	278	20	F	PSYC4802-20144	1.0.1	Block	exp	59	20141022.120453	same	100	same	1	7887
ZE	278	20	F	PSYC4802-20144	1.0.1	Block	exp	60	20141022.120503	same	20	same	1	5396
ZE	278	20	F	PSYC4802-20144	1.0.1	Block	exp	61	20141022.120511	diff	60	same	0	6496
ZE	278	20	F	PSYC4802-20144	1.0.1	Block	exp	62	20141022.120519	diff	60	diff	1	7807
ZE	278	20	F	PSYC4802-20144	1.0.1	Block	exp	63	20141022.120529	diff	100	diff	1	10562
ZE	278	20	F	PSYC4802-20144	1.0.1	Block	exp	64	20141022.120542	same	100	same	1	9992
ZE	278	20	F	PSYC4802-20144	1.0.1	Block	exp	65	20141022.120554	diff	60	diff	1	6236
ZE	278	20	F	PSYC4802-20144	1.0.1	Block	exp	66	20141022.120602	same	100	diff	0	11332
ZE	278	20	F	PSYC4802-20144	1.0.1	Block	exp	67	20141022.120615	diff	100	diff	1	15717
ZE	278	20	F	PSYC4802-20144	1.0.1	Block	exp	68	20141022.120633	same	100	same	1	5437
ZE	278	20	F	PSYC4802-20144	1.0.1	Block	exp	69	20141022.120641	same	60	same	1	7892
ZE	278	20	F	PSYC4802-20144	1.0.1	Block	exp	70	20141022.120651	diff	60	same	0	9852
ZE	278	20	F	PSYC4802-20144	1.0.1	Block	exp	71	20141022.120703	diff	60	same	0	7746
ZE	278	20	F	PSYC4802-20144	1.0.1	Block	exp	72	20141022.120712	diff	60	diff	1	14472
ZE	278	20	F	PSYC4802-20144	1.0.1	Block	exp	73	20141022.120729	same	60	same	1	8647
ZE	278	20	F	PSYC4802-20144	1.0.1	Block	exp	74	20141022.120740	same	100	same	1	17672
ZE	278	20	F	PSYC4802-20144	1.0.1	Block	exp	75	20141022.120759	same	100	same	1	10886
ZE	278	20	F	PSYC4802-20144	1.0.1	Block	exp	76	20141022.120812	diff	100	diff	1	9062
ZE	278	20	F	PSYC4802-20144	1.0.1	Block	exp	77	20141022.120823	same	20	same	1	4766
ZE	278	20	F	PSYC4802-20144	1.0.1	Block	exp	78	20141022.120830	diff	100	diff	1	14807
ZE	278	20	F	PSYC4802-20144	1.0.1	Block	exp	79	20141022.120847	diff	60	diff	1	4797
ZE	278	20	F	PSYC4802-20144	1.0.1	Block	exp	80	20141022.120854	same	60	same	1	4607
ZE	278	20	F	PSYC4802-20144	1.0.1	Block	exp	81	20141022.120901	same	100	same	1	9262
ZE	278	20	F	PSYC4802-20144	1.0.1	Block	exp	82	20141022.120912	same	60	same	1	13062
ZE	278	20	F	PSYC4802-20144	1.0.1	Block	exp	83	20141022.120927	diff	20	same	0	5371
ZE	278	20	F	PSYC4802-20144	1.0.1	Block	exp	84	20141022.120935	same	60	same	1	8012
ZE	278	20	F	PSYC4802-20144	1.0.1	Block	exp	85	20141022.120945	same	20	same	1	4106
ZE	278	20	F	PSYC4802-20144	1.0.1	Block	exp	86	20141022.120951	diff	100	same	0	12982
ZE	278	20	F	PSYC4802-20144	1.0.1	Block	exp	87	20141022.121006	diff	20	diff	1	11626
ZE	278	20	F	PSYC4802-20144	1.0.1	Block	exp	88	20141022.121020	same	100	same	1	10117
ZE	278	20	F	PSYC4802-20144	1.0.1	Block	exp	89	20141022.121032	same	60	same	1	7841
ZE	278	20	F	PSYC4802-20144	1.0.1	Block	exp	90	20141022.121042	same	20	same	1	5032
ZE	278	20	F	PSYC4802-20144	1.0.1	Block	exp	91	20141022.121049	same	100	diff	0	8987
ZE	278	20	F	PSYC4802-20144	1.0.1	Block	exp	92	20141022.121100	diff	20	diff	1	6461
ZE	278	20	F	PSYC4802-20144	1.0.1	Block	exp	93	20141022.121108	same	60	same	1	7066
ZE	278	20	F	PSYC4802-20144	1.0.1	Block	exp	94	20141022.121117	diff	60	same	0	6386
ZE	278	20	F	PSYC4802-20144	1.0.1	Block	exp	95	20141022.121126	diff	20	diff	1	2766
ZE	278	20	F	PSYC4802-20144	1.0.1	Block	exp	96	20141022.121131	diff	20	diff	1	6321
ZE	278	20	F	PSYC4802-20144	1.0.1	Block	exp	97	20141022.121139	diff	100	diff	1	8377
ZE	278	20	F	PSYC4802-20144	1.0.1	Block	exp	98	20141022.121150	diff	60	diff	1	1472
ZE	278	20	F	PSYC4802-20144	1.0.1	Block	exp	99	20141022.121153	diff	20	diff	1	9012
ZE	278	20	F	PSYC4802-20144	1.0.1	Block	exp	100	20141022.121204	diff	20	diff	1	2661
ZE	278	20	F	PSYC4802-20144	1.0.1	Block	exp	101	20141022.121211	same	100	diff	0	7086
ZE	278	20	F	PSYC4802-20144	1.0.1	Block	exp	102	20141022.121220	diff	100	same	0	5686
ZE	278	20	F	PSYC4802-20144	1.0.1	Block	exp	103	20141022.121228	diff	60	diff	1	12482
ZE	278	20	F	PSYC4802-20144	1.0.1	Block	exp	104	20141022.121243	diff	20	diff	1	9547
ZE	278	20	F	PSYC4802-20144	1.0.1	Block	exp	105	20141022.121254	diff	100	diff	1	4996
ZE	278	20	F	PSYC4802-20144	1.0.1	Block	exp	106	20141022.121301	same	20	same	1	6857
ZE	278	20	F	PSYC4802-20144	1.0.1	Block	exp	107	20141022.121310	diff	100	same	0	6357
ZE	278	20	F	PSYC4802-20144	1.0.1	Block	exp	108	20141022.121319	same	100	same	1	19247
ZE	278	20	F	PSYC4802-20144	1.0.1	Block	exp	109	20141022.121340	diff	100	diff	1	10132
ZE	278	20	F	PSYC4802-20144	1.0.1	Block	exp	110	20141022.121352	same	20	same	1	3166
ZE	278	20	F	PSYC4802-20144	1.0.1	Block	exp	111	20141022.121358	same	100	same	1	5611
ZE	278	20	F	PSYC4802-20144	1.0.1	Block	exp	112	20141022.121405	same	60	diff	0	8126
ZE	278	20	F	PSYC4802-20144	1.0.1	Block	exp	113	20141022.121416	same	60	same	1	4941
ZE	278	20	F	PSYC4802-20144	1.0.1	Block	exp	114	20141022.121423	diff	20	same	0	5661
ZE	278	20	F	PSYC4802-20144	1.0.1	Block	exp	115	20141022.121430	diff	60	diff	1	5376
ZE	278	20	F	PSYC4802-20144	1.0.1	Block	exp	116	20141022.121438	diff	20	same	0	9957
ZE	278	20	F	PSYC4802-20144	1.0.1	Block	exp	117	20141022.121450	same	60	diff	0	5197
ZE	278	20	F	PSYC4802-20144	1.0.1	Block	exp	118	20141022.121457	diff	60	same	0	6302
ZE	278	20	F	PSYC4802-20144	1.0.1	Block	exp	119	20141022.121506	same	60	same	1	5831
ZE	278	20	F	PSYC4802-20144	1.0.1	Block	exp	120	20141022.121514	same	60	same	1	8662
ZE	278	20	F	PSYC4802-20144	1.0.1	Block	exp	121	20141022.121524	same	20	same	1	7991
ZE	278	20	F	PSYC4802-20144	1.0.1	Block	exp	122	20141022.121534	same	60	diff	0	6912
ZE	278	20	F	PSYC4802-20144	1.0.1	Block	exp	123	20141022.121543	diff	20	same	0	3516
ZE	278	20	F	PSYC4802-20144	1.0.1	Block	exp	124	20141022.121549	same	100	diff	0	1096
ZE	278	20	F	PSYC4802-20144	1.0.1	Block	exp	125	20141022.121552	same	100	same	1	2421
ZE	278	20	F	PSYC4802-20144	1.0.1	Block	exp	126	20141022.121556	diff	20	same	0	4957
ZE	278	20	F	PSYC4802-20144	1.0.1	Block	exp	127	20141022.121604	diff	100	same	0	4741
ZE	278	20	F	PSYC4802-20144	1.0.1	Block	exp	128	20141022.121610	diff	100	diff	1	6586
ZE	278	20	F	PSYC4802-20144	1.0.1	Block	exp	129	20141022.121619	same	20	same	1	3656
ZE	278	20	F	PSYC4802-20144	1.0.1	Block	exp	130	20141022.121625	diff	100	same	0	7872
ZE	278	20	F	PSYC4802-20144	1.0.1	Block	exp	131	20141022.121635	diff	20	diff	1	4121
ZE	278	20	F	PSYC4802-20144	1.0.1	Block	exp	132	20141022.121641	diff	20	diff	1	6156
ZE	278	20	F	PSYC4802-20144	1.0.1	Block	exp	133	20141022.121649	diff	20	diff	1	4656
ZE	278	20	F	PSYC4802-20144	1.0.1	Block	exp	134	20141022.121656	diff	60	diff	1	4742
ZE	278	20	F	PSYC4802-20144	1.0.1	Block	exp	135	20141022.121703	diff	60	diff	1	2731
ZE	278	20	F	PSYC4802-20144	1.0.1	Block	exp	136	20141022.121707	diff	20	diff	1	5811
ZE	278	20	F	PSYC4802-20144	1.0.1	Block	exp	137	20141022.121715	same	100	same	1	3466
ZE	278	20	F	PSYC4802-20144	1.0.1	Block	exp	138	20141022.121721	same	60	diff	0	6776
ZE	278	20	F	PSYC4802-20144	1.0.1	Block	exp	139	20141022.121730	diff	100	same	0	3216
ZE	278	20	F	PSYC4802-20144	1.0.1	Block	exp	140	20141022.121735	same	60	same	1	9921
ZE	278	20	F	PSYC4802-20144	1.0.1	Block	exp	141	20141022.121747	diff	20	same	0	3156
ZE	278	20	F	PSYC4802-20144	1.0.1	Block	exp	142	20141022.121752	same	100	same	1	2012
ZE	278	20	F	PSYC4802-20144	1.0.1	Block	exp	143	20141022.121756	same	100	same	1	6332
ZE	278	20	F	PSYC4802-20144	1.0.1	Block	exp	144	20141022.121804	same	60	same	1	2846
ZE	278	20	F	PSYC4802-20144	1.0.1	Block	exp	145	20141022.121809	same	100	same	1	8051
ZE	278	20	F	PSYC4802-20144	1.0.1	Block	exp	146	20141022.121820	same	20	same	1	2652
ZE	278	20	F	PSYC4802-20144	1.0.1	Block	exp	147	20141022.121824	diff	60	same	0	2286
ZE	278	20	F	PSYC4802-20144	1.0.1	Block	exp	148	20141022.121829	diff	100	same	0	2401
ZE	278	20	F	PSYC4802-20144	1.0.1	Block	exp	149	20141022.121833	diff	60	same	0	7222
ZE	278	20	F	PSYC4802-20144	1.0.1	Block	exp	150	20141022.121842	same	100	diff	0	801
