Experimenter	Subject	Age	Sex	Experiment	Version	Block	TrialType	Trial	Timestamp	SameDiff	Rotation	Response	Acc	RT
AT	335	21	M	PSYC4802-20144	1.0.1	Block	practice	1	20141103.115142	diff	60	same	0	8106
AT	335	21	M	PSYC4802-20144	1.0.1	Block	practice	2	20141103.115152	same	20	same	1	4401
AT	335	21	M	PSYC4802-20144	1.0.1	Block	practice	3	20141103.115158	diff	60	same	0	7742
AT	335	21	M	PSYC4802-20144	1.0.1	Block	practice	4	20141103.115208	diff	20	same	0	7796
AT	335	21	M	PSYC4802-20144	1.0.1	Block	practice	5	20141103.115218	same	60	same	1	11817
AT	335	21	M	PSYC4802-20144	1.0.1	Block	practice	6	20141103.115232	diff	100	diff	1	8497
AT	335	21	M	PSYC4802-20144	1.0.1	Block	practice	7	20141103.115242	diff	20	diff	1	5196
AT	335	21	M	PSYC4802-20144	1.0.1	Block	practice	8	20141103.115249	same	100	same	1	9437
AT	335	21	M	PSYC4802-20144	1.0.1	Block	practice	9	20141103.115301	same	60	same	1	8856
AT	335	21	M	PSYC4802-20144	1.0.1	Block	practice	10	20141103.115312	same	100	same	1	5052
AT	335	21	M	PSYC4802-20144	1.0.1	Block	practice	11	20141103.115319	diff	100	diff	1	7151
AT	335	21	M	PSYC4802-20144	1.0.1	Block	practice	12	20141103.115328	diff	100	diff	1	8601
AT	335	21	M	PSYC4802-20144	1.0.1	Block	practice	13	20141103.115338	diff	60	diff	1	9137
AT	335	21	M	PSYC4802-20144	1.0.1	Block	practice	14	20141103.115349	diff	60	same	0	9986
AT	335	21	M	PSYC4802-20144	1.0.1	Block	practice	15	20141103.115401	same	60	same	1	10966
AT	335	21	M	PSYC4802-20144	1.0.1	Block	practice	16	20141103.115414	same	20	same	1	8781
AT	335	21	M	PSYC4802-20144	1.0.1	Block	practice	17	20141103.115425	same	20	same	1	3902
AT	335	21	M	PSYC4802-20144	1.0.1	Block	practice	18	20141103.115431	same	20	same	1	4566
AT	335	21	M	PSYC4802-20144	1.0.1	Block	practice	19	20141103.115438	diff	60	diff	1	11116
AT	335	21	M	PSYC4802-20144	1.0.1	Block	practice	20	20141103.115451	same	60	same	1	5816
AT	335	21	M	PSYC4802-20144	1.0.1	Block	practice	21	20141103.115459	diff	100	diff	1	4782
AT	335	21	M	PSYC4802-20144	1.0.1	Block	practice	22	20141103.115505	same	100	same	1	6596
AT	335	21	M	PSYC4802-20144	1.0.1	Block	practice	23	20141103.115514	same	20	same	1	4867
AT	335	21	M	PSYC4802-20144	1.0.1	Block	practice	24	20141103.115521	same	100	same	1	9517
AT	335	21	M	PSYC4802-20144	1.0.1	Block	practice	25	20141103.115532	diff	20	diff	1	6702
AT	335	21	M	PSYC4802-20144	1.0.1	Block	practice	26	20141103.115541	same	100	same	1	11707
AT	335	21	M	PSYC4802-20144	1.0.1	Block	practice	27	20141103.115555	diff	100	diff	1	10856
AT	335	21	M	PSYC4802-20144	1.0.1	Block	practice	28	20141103.115607	same	60	same	1	5672
AT	335	21	M	PSYC4802-20144	1.0.1	Block	practice	29	20141103.115615	diff	20	same	0	8716
AT	335	21	M	PSYC4802-20144	1.0.1	Block	practice	30	20141103.115626	diff	20	diff	1	5456
AT	335	21	M	PSYC4802-20144	1.0.1	Block	exp	31	20141103.115633	diff	100	diff	1	4882
AT	335	21	M	PSYC4802-20144	1.0.1	Block	exp	32	20141103.115640	diff	60	diff	1	7256
AT	335	21	M	PSYC4802-20144	1.0.1	Block	exp	33	20141103.115649	diff	20	diff	1	11006
AT	335	21	M	PSYC4802-20144	1.0.1	Block	exp	34	20141103.115702	diff	100	diff	1	5241
AT	335	21	M	PSYC4802-20144	1.0.1	Block	exp	35	20141103.115710	same	100	same	1	8691
AT	335	21	M	PSYC4802-20144	1.0.1	Block	exp	36	20141103.115720	diff	60	diff	1	8676
AT	335	21	M	PSYC4802-20144	1.0.1	Block	exp	37	20141103.115731	same	100	same	1	13261
AT	335	21	M	PSYC4802-20144	1.0.1	Block	exp	38	20141103.115746	diff	60	diff	1	5672
AT	335	21	M	PSYC4802-20144	1.0.1	Block	exp	39	20141103.115754	same	100	same	1	22628
AT	335	21	M	PSYC4802-20144	1.0.1	Block	exp	40	20141103.115819	diff	20	same	0	5886
AT	335	21	M	PSYC4802-20144	1.0.1	Block	exp	41	20141103.115826	diff	100	diff	1	14972
AT	335	21	M	PSYC4802-20144	1.0.1	Block	exp	42	20141103.115843	same	20	same	1	4766
AT	335	21	M	PSYC4802-20144	1.0.1	Block	exp	43	20141103.115850	same	20	same	1	9612
AT	335	21	M	PSYC4802-20144	1.0.1	Block	exp	44	20141103.115902	diff	60	diff	1	5531
AT	335	21	M	PSYC4802-20144	1.0.1	Block	exp	45	20141103.115909	same	20	same	1	5657
AT	335	21	M	PSYC4802-20144	1.0.1	Block	exp	46	20141103.115917	diff	60	same	0	9617
AT	335	21	M	PSYC4802-20144	1.0.1	Block	exp	47	20141103.115928	diff	60	diff	1	3672
AT	335	21	M	PSYC4802-20144	1.0.1	Block	exp	48	20141103.115934	same	100	same	1	5481
AT	335	21	M	PSYC4802-20144	1.0.1	Block	exp	49	20141103.115942	same	20	same	1	5492
AT	335	21	M	PSYC4802-20144	1.0.1	Block	exp	50	20141103.115949	diff	20	diff	1	5481
AT	335	21	M	PSYC4802-20144	1.0.1	Block	exp	51	20141103.120000	diff	100	diff	1	5616
AT	335	21	M	PSYC4802-20144	1.0.1	Block	exp	52	20141103.120008	diff	100	same	0	10206
AT	335	21	M	PSYC4802-20144	1.0.1	Block	exp	53	20141103.120020	same	60	same	1	5311
AT	335	21	M	PSYC4802-20144	1.0.1	Block	exp	54	20141103.120027	same	100	same	1	10806
AT	335	21	M	PSYC4802-20144	1.0.1	Block	exp	55	20141103.120040	diff	20	diff	1	12146
AT	335	21	M	PSYC4802-20144	1.0.1	Block	exp	56	20141103.120054	same	60	same	1	12766
AT	335	21	M	PSYC4802-20144	1.0.1	Block	exp	57	20141103.120109	diff	20	diff	1	15052
AT	335	21	M	PSYC4802-20144	1.0.1	Block	exp	58	20141103.120126	same	60	same	1	5811
AT	335	21	M	PSYC4802-20144	1.0.1	Block	exp	59	20141103.120134	same	60	same	1	6341
AT	335	21	M	PSYC4802-20144	1.0.1	Block	exp	60	20141103.120142	diff	60	diff	1	9562
AT	335	21	M	PSYC4802-20144	1.0.1	Block	exp	61	20141103.120154	same	20	same	1	6581
AT	335	21	M	PSYC4802-20144	1.0.1	Block	exp	62	20141103.120202	same	100	same	1	9607
AT	335	21	M	PSYC4802-20144	1.0.1	Block	exp	63	20141103.120214	same	20	same	1	4481
AT	335	21	M	PSYC4802-20144	1.0.1	Block	exp	64	20141103.120220	diff	100	diff	1	2341
AT	335	21	M	PSYC4802-20144	1.0.1	Block	exp	65	20141103.120225	same	100	diff	0	9322
AT	335	21	M	PSYC4802-20144	1.0.1	Block	exp	66	20141103.120236	same	20	same	1	4372
AT	335	21	M	PSYC4802-20144	1.0.1	Block	exp	67	20141103.120242	same	60	same	1	7367
AT	335	21	M	PSYC4802-20144	1.0.1	Block	exp	68	20141103.120252	same	100	same	1	8871
AT	335	21	M	PSYC4802-20144	1.0.1	Block	exp	69	20141103.120303	diff	100	diff	1	5106
AT	335	21	M	PSYC4802-20144	1.0.1	Block	exp	70	20141103.120310	same	60	same	1	7831
AT	335	21	M	PSYC4802-20144	1.0.1	Block	exp	71	20141103.120319	same	60	same	1	8677
AT	335	21	M	PSYC4802-20144	1.0.1	Block	exp	72	20141103.120330	diff	60	diff	1	2736
AT	335	21	M	PSYC4802-20144	1.0.1	Block	exp	73	20141103.120335	diff	60	diff	1	3546
AT	335	21	M	PSYC4802-20144	1.0.1	Block	exp	74	20141103.120340	same	20	same	1	4076
AT	335	21	M	PSYC4802-20144	1.0.1	Block	exp	75	20141103.120346	same	100	same	1	6561
AT	335	21	M	PSYC4802-20144	1.0.1	Block	exp	76	20141103.120355	same	60	same	1	5221
AT	335	21	M	PSYC4802-20144	1.0.1	Block	exp	77	20141103.120402	same	20	same	1	3296
AT	335	21	M	PSYC4802-20144	1.0.1	Block	exp	78	20141103.120408	diff	100	diff	1	2246
AT	335	21	M	PSYC4802-20144	1.0.1	Block	exp	79	20141103.120412	diff	20	diff	1	2031
AT	335	21	M	PSYC4802-20144	1.0.1	Block	exp	80	20141103.120416	diff	20	diff	1	5936
AT	335	21	M	PSYC4802-20144	1.0.1	Block	exp	81	20141103.120424	diff	20	diff	1	3551
AT	335	21	M	PSYC4802-20144	1.0.1	Block	exp	82	20141103.120429	same	100	same	1	5026
AT	335	21	M	PSYC4802-20144	1.0.1	Block	exp	83	20141103.120436	same	60	same	1	3751
AT	335	21	M	PSYC4802-20144	1.0.1	Block	exp	84	20141103.120442	diff	20	diff	1	5807
AT	335	21	M	PSYC4802-20144	1.0.1	Block	exp	85	20141103.120450	diff	60	diff	1	4906
AT	335	21	M	PSYC4802-20144	1.0.1	Block	exp	86	20141103.120457	diff	20	diff	1	5852
AT	335	21	M	PSYC4802-20144	1.0.1	Block	exp	87	20141103.120504	same	20	same	1	3222
AT	335	21	M	PSYC4802-20144	1.0.1	Block	exp	88	20141103.120510	same	60	same	1	5592
AT	335	21	M	PSYC4802-20144	1.0.1	Block	exp	89	20141103.120517	same	100	same	1	6986
AT	335	21	M	PSYC4802-20144	1.0.1	Block	exp	90	20141103.120526	same	100	same	1	9653
AT	335	21	M	PSYC4802-20144	1.0.1	Block	exp	91	20141103.120538	same	20	same	1	7929
AT	335	21	M	PSYC4802-20144	1.0.1	Block	exp	92	20141103.120548	diff	60	diff	1	2356
AT	335	21	M	PSYC4802-20144	1.0.1	Block	exp	93	20141103.120552	same	20	same	1	2846
AT	335	21	M	PSYC4802-20144	1.0.1	Block	exp	94	20141103.120557	diff	20	diff	1	5796
AT	335	21	M	PSYC4802-20144	1.0.1	Block	exp	95	20141103.120605	same	60	same	1	5991
AT	335	21	M	PSYC4802-20144	1.0.1	Block	exp	96	20141103.120613	diff	100	diff	1	6562
AT	335	21	M	PSYC4802-20144	1.0.1	Block	exp	97	20141103.120621	same	60	same	1	4652
AT	335	21	M	PSYC4802-20144	1.0.1	Block	exp	98	20141103.120628	diff	100	diff	1	3456
AT	335	21	M	PSYC4802-20144	1.0.1	Block	exp	99	20141103.120633	same	60	same	1	3436
AT	335	21	M	PSYC4802-20144	1.0.1	Block	exp	100	20141103.120639	diff	20	diff	1	6301
AT	335	21	M	PSYC4802-20144	1.0.1	Block	exp	101	20141103.120656	diff	100	diff	1	3871
AT	335	21	M	PSYC4802-20144	1.0.1	Block	exp	102	20141103.120702	diff	100	diff	1	3661
AT	335	21	M	PSYC4802-20144	1.0.1	Block	exp	103	20141103.120707	same	100	same	1	4921
AT	335	21	M	PSYC4802-20144	1.0.1	Block	exp	104	20141103.120714	same	20	same	1	4186
AT	335	21	M	PSYC4802-20144	1.0.1	Block	exp	105	20141103.120720	diff	20	diff	1	4921
AT	335	21	M	PSYC4802-20144	1.0.1	Block	exp	106	20141103.120727	same	100	same	1	5706
AT	335	21	M	PSYC4802-20144	1.0.1	Block	exp	107	20141103.120735	same	20	same	1	4377
AT	335	21	M	PSYC4802-20144	1.0.1	Block	exp	108	20141103.120741	same	20	same	1	9337
AT	335	21	M	PSYC4802-20144	1.0.1	Block	exp	109	20141103.120753	same	100	diff	0	6121
AT	335	21	M	PSYC4802-20144	1.0.1	Block	exp	110	20141103.120801	same	60	same	1	3741
AT	335	21	M	PSYC4802-20144	1.0.1	Block	exp	111	20141103.120806	diff	20	diff	1	5656
AT	335	21	M	PSYC4802-20144	1.0.1	Block	exp	112	20141103.120814	same	60	same	1	4021
AT	335	21	M	PSYC4802-20144	1.0.1	Block	exp	113	20141103.120820	same	20	same	1	2731
AT	335	21	M	PSYC4802-20144	1.0.1	Block	exp	114	20141103.120825	same	100	diff	0	3461
AT	335	21	M	PSYC4802-20144	1.0.1	Block	exp	115	20141103.120830	diff	60	diff	1	3931
AT	335	21	M	PSYC4802-20144	1.0.1	Block	exp	116	20141103.120836	diff	20	diff	1	6907
AT	335	21	M	PSYC4802-20144	1.0.1	Block	exp	117	20141103.120845	diff	20	diff	1	6042
AT	335	21	M	PSYC4802-20144	1.0.1	Block	exp	118	20141103.120853	diff	100	diff	1	5032
AT	335	21	M	PSYC4802-20144	1.0.1	Block	exp	119	20141103.120900	same	20	same	1	3106
AT	335	21	M	PSYC4802-20144	1.0.1	Block	exp	120	20141103.120905	same	100	same	1	5796
AT	335	21	M	PSYC4802-20144	1.0.1	Block	exp	121	20141103.120913	same	20	same	1	6097
AT	335	21	M	PSYC4802-20144	1.0.1	Block	exp	122	20141103.120921	diff	100	diff	1	3986
AT	335	21	M	PSYC4802-20144	1.0.1	Block	exp	123	20141103.120927	diff	60	diff	1	3662
AT	335	21	M	PSYC4802-20144	1.0.1	Block	exp	124	20141103.120933	diff	100	diff	1	3081
AT	335	21	M	PSYC4802-20144	1.0.1	Block	exp	125	20141103.120938	diff	20	diff	1	2736
AT	335	21	M	PSYC4802-20144	1.0.1	Block	exp	126	20141103.120943	diff	100	diff	1	2146
AT	335	21	M	PSYC4802-20144	1.0.1	Block	exp	127	20141103.120947	diff	60	diff	1	2766
AT	335	21	M	PSYC4802-20144	1.0.1	Block	exp	128	20141103.120951	diff	60	diff	1	2911
AT	335	21	M	PSYC4802-20144	1.0.1	Block	exp	129	20141103.120956	same	60	same	1	3276
AT	335	21	M	PSYC4802-20144	1.0.1	Block	exp	130	20141103.121002	diff	20	diff	1	2456
AT	335	21	M	PSYC4802-20144	1.0.1	Block	exp	131	20141103.121006	diff	100	diff	1	3061
AT	335	21	M	PSYC4802-20144	1.0.1	Block	exp	132	20141103.121011	diff	100	diff	1	4451
AT	335	21	M	PSYC4802-20144	1.0.1	Block	exp	133	20141103.121017	same	60	same	1	7441
AT	335	21	M	PSYC4802-20144	1.0.1	Block	exp	134	20141103.121027	same	60	same	1	4967
AT	335	21	M	PSYC4802-20144	1.0.1	Block	exp	135	20141103.121034	same	100	same	1	5052
AT	335	21	M	PSYC4802-20144	1.0.1	Block	exp	136	20141103.121041	diff	60	diff	1	3942
AT	335	21	M	PSYC4802-20144	1.0.1	Block	exp	137	20141103.121047	same	100	same	1	4281
AT	335	21	M	PSYC4802-20144	1.0.1	Block	exp	138	20141103.121053	diff	100	diff	1	4086
AT	335	21	M	PSYC4802-20144	1.0.1	Block	exp	139	20141103.121059	diff	20	diff	1	3176
AT	335	21	M	PSYC4802-20144	1.0.1	Block	exp	140	20141103.121104	diff	60	same	0	2507
AT	335	21	M	PSYC4802-20144	1.0.1	Block	exp	141	20141103.121109	same	20	same	1	3646
AT	335	21	M	PSYC4802-20144	1.0.1	Block	exp	142	20141103.121114	same	20	same	1	3741
AT	335	21	M	PSYC4802-20144	1.0.1	Block	exp	143	20141103.121120	same	100	same	1	5476
AT	335	21	M	PSYC4802-20144	1.0.1	Block	exp	144	20141103.121127	diff	60	diff	1	2021
AT	335	21	M	PSYC4802-20144	1.0.1	Block	exp	145	20141103.121131	diff	20	diff	1	2916
AT	335	21	M	PSYC4802-20144	1.0.1	Block	exp	146	20141103.121136	diff	60	diff	1	5282
AT	335	21	M	PSYC4802-20144	1.0.1	Block	exp	147	20141103.121144	same	60	same	1	6186
AT	335	21	M	PSYC4802-20144	1.0.1	Block	exp	148	20141103.121152	same	60	same	1	8356
AT	335	21	M	PSYC4802-20144	1.0.1	Block	exp	149	20141103.121202	diff	100	diff	1	2646
AT	335	21	M	PSYC4802-20144	1.0.1	Block	exp	150	20141103.121207	diff	60	diff	1	3171
