Experimenter	Subject	Age	Sex	Experiment	Version	Block	TrialType	Trial	Timestamp	SameDiff	Rotation	Response	Acc	RT
RCG	15	19	F	PSYC4802-20142	1.0	Block	practice	1	20140421.104839	diff	60	diff	1	12458
RCG	15	19	F	PSYC4802-20142	1.0	Block	practice	2	20140421.104854	diff	20	diff	1	2163
RCG	15	19	F	PSYC4802-20142	1.0	Block	practice	3	20140421.104858	diff	100	diff	1	5972
RCG	15	19	F	PSYC4802-20142	1.0	Block	practice	4	20140421.104906	same	20	same	1	3769
RCG	15	19	F	PSYC4802-20142	1.0	Block	practice	5	20140421.104912	diff	60	same	0	1419
RCG	15	19	F	PSYC4802-20142	1.0	Block	practice	6	20140421.104915	same	20	same	1	2275
RCG	15	19	F	PSYC4802-20142	1.0	Block	practice	7	20140421.104920	same	60	diff	0	1858
RCG	15	19	F	PSYC4802-20142	1.0	Block	practice	8	20140421.104923	same	60	same	1	3821
RCG	15	19	F	PSYC4802-20142	1.0	Block	practice	9	20140421.104929	same	60	same	1	4829
RCG	15	19	F	PSYC4802-20142	1.0	Block	practice	10	20140421.104936	diff	20	diff	1	4138
RCG	15	19	F	PSYC4802-20142	1.0	Block	practice	11	20140421.104942	same	20	same	1	3048
RCG	15	19	F	PSYC4802-20142	1.0	Block	practice	12	20140421.104947	diff	20	same	0	7923
RCG	15	19	F	PSYC4802-20142	1.0	Block	practice	13	20140421.104957	diff	60	diff	1	4518
RCG	15	19	F	PSYC4802-20142	1.0	Block	practice	14	20140421.105004	diff	60	diff	1	3657
RCG	15	19	F	PSYC4802-20142	1.0	Block	practice	15	20140421.105009	diff	60	diff	1	3024
RCG	15	19	F	PSYC4802-20142	1.0	Block	practice	16	20140421.105015	same	20	same	1	3681
RCG	15	19	F	PSYC4802-20142	1.0	Block	practice	17	20140421.105020	same	100	same	1	5468
RCG	15	19	F	PSYC4802-20142	1.0	Block	practice	18	20140421.105028	diff	100	diff	1	2257
RCG	15	19	F	PSYC4802-20142	1.0	Block	practice	19	20140421.105032	diff	20	diff	1	7021
RCG	15	19	F	PSYC4802-20142	1.0	Block	practice	20	20140421.105041	same	100	diff	0	5485
RCG	15	19	F	PSYC4802-20142	1.0	Block	practice	21	20140421.105048	same	60	diff	0	9012
RCG	15	19	F	PSYC4802-20142	1.0	Block	practice	22	20140421.105059	same	100	same	1	7098
RCG	15	19	F	PSYC4802-20142	1.0	Block	practice	23	20140421.105109	diff	100	diff	1	4653
RCG	15	19	F	PSYC4802-20142	1.0	Block	practice	24	20140421.105115	same	100	diff	0	7220
RCG	15	19	F	PSYC4802-20142	1.0	Block	practice	25	20140421.105124	diff	100	diff	1	6768
RCG	15	19	F	PSYC4802-20142	1.0	Block	practice	26	20140421.105133	same	60	diff	0	6089
RCG	15	19	F	PSYC4802-20142	1.0	Block	practice	27	20140421.105141	same	100	diff	0	6294
RCG	15	19	F	PSYC4802-20142	1.0	Block	practice	28	20140421.105150	diff	100	same	0	3341
RCG	15	19	F	PSYC4802-20142	1.0	Block	practice	29	20140421.105155	same	20	same	1	3528
RCG	15	19	F	PSYC4802-20142	1.0	Block	practice	30	20140421.105200	diff	20	diff	1	5737
RCG	15	19	F	PSYC4802-20142	1.0	Block	exp	31	20140421.105208	diff	100	diff	1	5263
RCG	15	19	F	PSYC4802-20142	1.0	Block	exp	32	20140421.105215	same	20	diff	0	5597
RCG	15	19	F	PSYC4802-20142	1.0	Block	exp	33	20140421.105223	diff	20	same	0	8585
RCG	15	19	F	PSYC4802-20142	1.0	Block	exp	34	20140421.105234	same	20	same	1	4993
RCG	15	19	F	PSYC4802-20142	1.0	Block	exp	35	20140421.105241	same	60	same	1	5690
RCG	15	19	F	PSYC4802-20142	1.0	Block	exp	36	20140421.105248	same	100	same	1	4501
RCG	15	19	F	PSYC4802-20142	1.0	Block	exp	37	20140421.105255	diff	20	diff	1	2281
RCG	15	19	F	PSYC4802-20142	1.0	Block	exp	38	20140421.105259	same	20	same	1	2596
RCG	15	19	F	PSYC4802-20142	1.0	Block	exp	39	20140421.105304	diff	20	diff	1	4858
RCG	15	19	F	PSYC4802-20142	1.0	Block	exp	40	20140421.105311	same	60	same	1	5526
RCG	15	19	F	PSYC4802-20142	1.0	Block	exp	41	20140421.105318	same	100	same	1	11854
RCG	15	19	F	PSYC4802-20142	1.0	Block	exp	42	20140421.105332	same	20	same	1	2895
RCG	15	19	F	PSYC4802-20142	1.0	Block	exp	43	20140421.105337	same	60	same	1	3395
RCG	15	19	F	PSYC4802-20142	1.0	Block	exp	44	20140421.105342	same	100	diff	0	2327
RCG	15	19	F	PSYC4802-20142	1.0	Block	exp	45	20140421.105347	diff	100	diff	1	7449
RCG	15	19	F	PSYC4802-20142	1.0	Block	exp	46	20140421.105356	diff	100	diff	1	5621
RCG	15	19	F	PSYC4802-20142	1.0	Block	exp	47	20140421.105404	diff	60	diff	1	8948
RCG	15	19	F	PSYC4802-20142	1.0	Block	exp	48	20140421.105415	same	100	same	1	4554
RCG	15	19	F	PSYC4802-20142	1.0	Block	exp	49	20140421.105421	same	60	diff	0	5292
RCG	15	19	F	PSYC4802-20142	1.0	Block	exp	50	20140421.105428	diff	60	diff	1	5515
RCG	15	19	F	PSYC4802-20142	1.0	Block	exp	51	20140421.105440	same	100	same	1	3259
RCG	15	19	F	PSYC4802-20142	1.0	Block	exp	52	20140421.105445	same	60	same	1	5227
RCG	15	19	F	PSYC4802-20142	1.0	Block	exp	53	20140421.105452	diff	20	diff	1	6107
RCG	15	19	F	PSYC4802-20142	1.0	Block	exp	54	20140421.105500	diff	20	same	0	7695
RCG	15	19	F	PSYC4802-20142	1.0	Block	exp	55	20140421.105510	same	20	same	1	3130
RCG	15	19	F	PSYC4802-20142	1.0	Block	exp	56	20140421.105515	diff	100	same	0	6406
RCG	15	19	F	PSYC4802-20142	1.0	Block	exp	57	20140421.105523	diff	100	diff	1	7190
RCG	15	19	F	PSYC4802-20142	1.0	Block	exp	58	20140421.105533	same	60	same	1	3628
RCG	15	19	F	PSYC4802-20142	1.0	Block	exp	59	20140421.105538	same	100	same	1	9323
RCG	15	19	F	PSYC4802-20142	1.0	Block	exp	60	20140421.105550	same	60	diff	0	6236
RCG	15	19	F	PSYC4802-20142	1.0	Block	exp	61	20140421.105558	diff	100	diff	1	4425
RCG	15	19	F	PSYC4802-20142	1.0	Block	exp	62	20140421.105604	diff	60	diff	1	9834
RCG	15	19	F	PSYC4802-20142	1.0	Block	exp	63	20140421.105616	diff	20	diff	1	12113
RCG	15	19	F	PSYC4802-20142	1.0	Block	exp	64	20140421.105630	same	20	same	1	6828
RCG	15	19	F	PSYC4802-20142	1.0	Block	exp	65	20140421.105639	diff	20	diff	1	5134
RCG	15	19	F	PSYC4802-20142	1.0	Block	exp	66	20140421.105646	diff	60	same	0	11699
RCG	15	19	F	PSYC4802-20142	1.0	Block	exp	67	20140421.105700	diff	100	diff	1	4049
RCG	15	19	F	PSYC4802-20142	1.0	Block	exp	68	20140421.105706	diff	100	diff	1	3816
RCG	15	19	F	PSYC4802-20142	1.0	Block	exp	69	20140421.105712	same	20	same	1	5978
RCG	15	19	F	PSYC4802-20142	1.0	Block	exp	70	20140421.105720	diff	60	diff	1	5146
RCG	15	19	F	PSYC4802-20142	1.0	Block	exp	71	20140421.105727	diff	100	same	0	4249
RCG	15	19	F	PSYC4802-20142	1.0	Block	exp	72	20140421.105733	same	20	same	1	2984
RCG	15	19	F	PSYC4802-20142	1.0	Block	exp	73	20140421.105738	same	60	same	1	4155
RCG	15	19	F	PSYC4802-20142	1.0	Block	exp	74	20140421.105744	diff	20	diff	1	1788
RCG	15	19	F	PSYC4802-20142	1.0	Block	exp	75	20140421.105748	diff	20	diff	1	3323
RCG	15	19	F	PSYC4802-20142	1.0	Block	exp	76	20140421.105753	same	60	same	1	2872
RCG	15	19	F	PSYC4802-20142	1.0	Block	exp	77	20140421.105758	diff	100	diff	1	1864
RCG	15	19	F	PSYC4802-20142	1.0	Block	exp	78	20140421.105802	same	20	same	1	1759
RCG	15	19	F	PSYC4802-20142	1.0	Block	exp	79	20140421.105806	same	20	same	1	2046
RCG	15	19	F	PSYC4802-20142	1.0	Block	exp	80	20140421.105810	same	100	same	1	4038
RCG	15	19	F	PSYC4802-20142	1.0	Block	exp	81	20140421.105816	diff	20	same	0	1853
RCG	15	19	F	PSYC4802-20142	1.0	Block	exp	82	20140421.105820	diff	20	same	0	3054
RCG	15	19	F	PSYC4802-20142	1.0	Block	exp	83	20140421.105825	same	20	same	1	3710
RCG	15	19	F	PSYC4802-20142	1.0	Block	exp	84	20140421.105830	diff	60	diff	1	2832
RCG	15	19	F	PSYC4802-20142	1.0	Block	exp	85	20140421.105835	same	100	diff	0	5404
RCG	15	19	F	PSYC4802-20142	1.0	Block	exp	86	20140421.105843	same	100	same	1	3417
RCG	15	19	F	PSYC4802-20142	1.0	Block	exp	87	20140421.105848	diff	60	diff	1	5222
RCG	15	19	F	PSYC4802-20142	1.0	Block	exp	88	20140421.105855	diff	100	diff	1	6910
RCG	15	19	F	PSYC4802-20142	1.0	Block	exp	89	20140421.105904	same	100	diff	0	7009
RCG	15	19	F	PSYC4802-20142	1.0	Block	exp	90	20140421.105913	diff	60	diff	1	4589
RCG	15	19	F	PSYC4802-20142	1.0	Block	exp	91	20140421.105920	diff	60	diff	1	2374
RCG	15	19	F	PSYC4802-20142	1.0	Block	exp	92	20140421.105924	diff	100	diff	1	3739
RCG	15	19	F	PSYC4802-20142	1.0	Block	exp	93	20140421.105930	diff	60	diff	1	3264
RCG	15	19	F	PSYC4802-20142	1.0	Block	exp	94	20140421.105935	diff	100	diff	1	4770
RCG	15	19	F	PSYC4802-20142	1.0	Block	exp	95	20140421.105942	diff	60	diff	1	4179
RCG	15	19	F	PSYC4802-20142	1.0	Block	exp	96	20140421.105948	diff	100	same	0	3136
RCG	15	19	F	PSYC4802-20142	1.0	Block	exp	97	20140421.105953	same	60	same	1	3060
RCG	15	19	F	PSYC4802-20142	1.0	Block	exp	98	20140421.105958	same	100	diff	0	2649
RCG	15	19	F	PSYC4802-20142	1.0	Block	exp	99	20140421.110003	diff	20	diff	1	4700
RCG	15	19	F	PSYC4802-20142	1.0	Block	exp	100	20140421.110010	diff	20	diff	1	1847
RCG	15	19	F	PSYC4802-20142	1.0	Block	exp	101	20140421.110017	diff	100	diff	1	2199
RCG	15	19	F	PSYC4802-20142	1.0	Block	exp	102	20140421.110021	diff	100	diff	1	4237
RCG	15	19	F	PSYC4802-20142	1.0	Block	exp	103	20140421.110027	same	20	same	1	2802
RCG	15	19	F	PSYC4802-20142	1.0	Block	exp	104	20140421.110032	diff	20	diff	1	3048
RCG	15	19	F	PSYC4802-20142	1.0	Block	exp	105	20140421.110037	same	20	same	1	2058
RCG	15	19	F	PSYC4802-20142	1.0	Block	exp	106	20140421.110041	same	100	diff	0	3962
RCG	15	19	F	PSYC4802-20142	1.0	Block	exp	107	20140421.110047	same	20	same	1	2819
RCG	15	19	F	PSYC4802-20142	1.0	Block	exp	108	20140421.110052	same	20	same	1	2081
RCG	15	19	F	PSYC4802-20142	1.0	Block	exp	109	20140421.110056	diff	100	diff	1	4209
RCG	15	19	F	PSYC4802-20142	1.0	Block	exp	110	20140421.110102	diff	20	diff	1	2474
RCG	15	19	F	PSYC4802-20142	1.0	Block	exp	111	20140421.110107	diff	60	same	0	2591
RCG	15	19	F	PSYC4802-20142	1.0	Block	exp	112	20140421.110111	same	60	same	1	3762
RCG	15	19	F	PSYC4802-20142	1.0	Block	exp	113	20140421.110117	same	60	same	1	3470
RCG	15	19	F	PSYC4802-20142	1.0	Block	exp	114	20140421.110123	diff	20	diff	1	1425
RCG	15	19	F	PSYC4802-20142	1.0	Block	exp	115	20140421.110126	diff	20	diff	1	4284
RCG	15	19	F	PSYC4802-20142	1.0	Block	exp	116	20140421.110132	same	100	diff	0	3774
RCG	15	19	F	PSYC4802-20142	1.0	Block	exp	117	20140421.110138	same	60	same	1	3177
RCG	15	19	F	PSYC4802-20142	1.0	Block	exp	118	20140421.110143	same	60	same	1	3071
RCG	15	19	F	PSYC4802-20142	1.0	Block	exp	119	20140421.110148	same	60	same	1	5163
RCG	15	19	F	PSYC4802-20142	1.0	Block	exp	120	20140421.110156	same	60	same	1	3376
RCG	15	19	F	PSYC4802-20142	1.0	Block	exp	121	20140421.110201	same	100	same	1	3224
RCG	15	19	F	PSYC4802-20142	1.0	Block	exp	122	20140421.110206	same	100	same	1	4876
RCG	15	19	F	PSYC4802-20142	1.0	Block	exp	123	20140421.110213	same	60	same	1	3288
RCG	15	19	F	PSYC4802-20142	1.0	Block	exp	124	20140421.110218	same	20	same	1	3300
RCG	15	19	F	PSYC4802-20142	1.0	Block	exp	125	20140421.110224	same	20	same	1	2457
RCG	15	19	F	PSYC4802-20142	1.0	Block	exp	126	20140421.110228	same	100	same	1	3083
RCG	15	19	F	PSYC4802-20142	1.0	Block	exp	127	20140421.110233	diff	60	same	0	3294
RCG	15	19	F	PSYC4802-20142	1.0	Block	exp	128	20140421.110238	same	60	same	1	3974
RCG	15	19	F	PSYC4802-20142	1.0	Block	exp	129	20140421.110244	same	100	same	1	6664
RCG	15	19	F	PSYC4802-20142	1.0	Block	exp	130	20140421.110253	diff	60	diff	1	2690
RCG	15	19	F	PSYC4802-20142	1.0	Block	exp	131	20140421.110258	diff	60	diff	1	1319
RCG	15	19	F	PSYC4802-20142	1.0	Block	exp	132	20140421.110301	same	100	same	1	2310
RCG	15	19	F	PSYC4802-20142	1.0	Block	exp	133	20140421.110305	diff	20	same	0	5345
RCG	15	19	F	PSYC4802-20142	1.0	Block	exp	134	20140421.110313	same	20	same	1	2744
RCG	15	19	F	PSYC4802-20142	1.0	Block	exp	135	20140421.110317	same	100	same	1	4109
RCG	15	19	F	PSYC4802-20142	1.0	Block	exp	136	20140421.110323	diff	100	diff	1	3499
RCG	15	19	F	PSYC4802-20142	1.0	Block	exp	137	20140421.110329	diff	60	diff	1	4255
RCG	15	19	F	PSYC4802-20142	1.0	Block	exp	138	20140421.110335	diff	20	diff	1	4742
RCG	15	19	F	PSYC4802-20142	1.0	Block	exp	139	20140421.110342	same	20	same	1	2861
RCG	15	19	F	PSYC4802-20142	1.0	Block	exp	140	20140421.110347	diff	60	same	0	4935
RCG	15	19	F	PSYC4802-20142	1.0	Block	exp	141	20140421.110354	same	60	same	1	2421
RCG	15	19	F	PSYC4802-20142	1.0	Block	exp	142	20140421.110358	diff	60	diff	1	3985
RCG	15	19	F	PSYC4802-20142	1.0	Block	exp	143	20140421.110404	same	100	same	1	3786
RCG	15	19	F	PSYC4802-20142	1.0	Block	exp	144	20140421.110410	same	20	same	1	1566
RCG	15	19	F	PSYC4802-20142	1.0	Block	exp	145	20140421.110413	same	60	diff	0	2356
RCG	15	19	F	PSYC4802-20142	1.0	Block	exp	146	20140421.110418	diff	60	diff	1	3054
RCG	15	19	F	PSYC4802-20142	1.0	Block	exp	147	20140421.110423	diff	60	diff	1	3101
RCG	15	19	F	PSYC4802-20142	1.0	Block	exp	148	20140421.110428	diff	20	diff	1	2996
RCG	15	19	F	PSYC4802-20142	1.0	Block	exp	149	20140421.110433	diff	100	diff	1	2738
RCG	15	19	F	PSYC4802-20142	1.0	Block	exp	150	20140421.110438	diff	100	diff	1	2087
