Experimenter	Subject	Age	Sex	Experiment	Version	Block	TrialType	Trial	Timestamp	SameDiff	Rotation	Response	Acc	RT
dt	134	18	m	PSYC4802-20142	1.0	Block	practice	1	20140505.111443	diff	60	diff	1	18434
dt	134	18	m	PSYC4802-20142	1.0	Block	practice	2	20140505.111504	same	60	same	1	6505
dt	134	18	m	PSYC4802-20142	1.0	Block	practice	3	20140505.111513	same	100	diff	0	8720
dt	134	18	m	PSYC4802-20142	1.0	Block	practice	4	20140505.111523	same	60	same	1	4975
dt	134	18	m	PSYC4802-20142	1.0	Block	practice	5	20140505.111530	diff	100	diff	1	3903
dt	134	18	m	PSYC4802-20142	1.0	Block	practice	6	20140505.111536	same	20	same	1	4507
dt	134	18	m	PSYC4802-20142	1.0	Block	practice	7	20140505.111543	same	100	same	1	11854
dt	134	18	m	PSYC4802-20142	1.0	Block	practice	8	20140505.111557	same	60	same	1	5760
dt	134	18	m	PSYC4802-20142	1.0	Block	practice	9	20140505.111604	diff	20	same	0	6622
dt	134	18	m	PSYC4802-20142	1.0	Block	practice	10	20140505.111613	diff	100	diff	1	3429
dt	134	18	m	PSYC4802-20142	1.0	Block	practice	11	20140505.111618	same	20	same	1	3645
dt	134	18	m	PSYC4802-20142	1.0	Block	practice	12	20140505.111624	same	20	same	1	5726
dt	134	18	m	PSYC4802-20142	1.0	Block	practice	13	20140505.111632	diff	100	diff	1	2152
dt	134	18	m	PSYC4802-20142	1.0	Block	practice	14	20140505.111636	same	100	same	1	6288
dt	134	18	m	PSYC4802-20142	1.0	Block	practice	15	20140505.111644	same	100	same	1	5919
dt	134	18	m	PSYC4802-20142	1.0	Block	practice	16	20140505.111652	diff	60	diff	1	7723
dt	134	18	m	PSYC4802-20142	1.0	Block	practice	17	20140505.111702	same	100	same	1	8286
dt	134	18	m	PSYC4802-20142	1.0	Block	practice	18	20140505.111712	same	20	same	1	3710
dt	134	18	m	PSYC4802-20142	1.0	Block	practice	19	20140505.111718	diff	20	diff	1	4829
dt	134	18	m	PSYC4802-20142	1.0	Block	practice	20	20140505.111725	diff	60	diff	1	3669
dt	134	18	m	PSYC4802-20142	1.0	Block	practice	21	20140505.111730	same	60	same	1	4765
dt	134	18	m	PSYC4802-20142	1.0	Block	practice	22	20140505.111737	same	20	same	1	3153
dt	134	18	m	PSYC4802-20142	1.0	Block	practice	23	20140505.111742	diff	20	diff	1	3499
dt	134	18	m	PSYC4802-20142	1.0	Block	practice	24	20140505.111747	diff	60	diff	1	4038
dt	134	18	m	PSYC4802-20142	1.0	Block	practice	25	20140505.111753	diff	60	diff	1	4091
dt	134	18	m	PSYC4802-20142	1.0	Block	practice	26	20140505.111800	diff	20	diff	1	3353
dt	134	18	m	PSYC4802-20142	1.0	Block	practice	27	20140505.111805	diff	20	diff	1	3528
dt	134	18	m	PSYC4802-20142	1.0	Block	practice	28	20140505.111810	same	60	diff	0	3599
dt	134	18	m	PSYC4802-20142	1.0	Block	practice	29	20140505.111816	diff	100	diff	1	1999
dt	134	18	m	PSYC4802-20142	1.0	Block	practice	30	20140505.111820	diff	100	diff	1	3710
dt	134	18	m	PSYC4802-20142	1.0	Block	exp	31	20140505.111826	diff	20	diff	1	2755
dt	134	18	m	PSYC4802-20142	1.0	Block	exp	32	20140505.111830	diff	20	diff	1	11801
dt	134	18	m	PSYC4802-20142	1.0	Block	exp	33	20140505.111844	same	60	same	1	5679
dt	134	18	m	PSYC4802-20142	1.0	Block	exp	34	20140505.111852	diff	100	diff	1	3605
dt	134	18	m	PSYC4802-20142	1.0	Block	exp	35	20140505.111857	same	100	same	1	5303
dt	134	18	m	PSYC4802-20142	1.0	Block	exp	36	20140505.111905	same	100	same	1	8913
dt	134	18	m	PSYC4802-20142	1.0	Block	exp	37	20140505.111915	same	100	same	1	4296
dt	134	18	m	PSYC4802-20142	1.0	Block	exp	38	20140505.111922	diff	60	diff	1	3552
dt	134	18	m	PSYC4802-20142	1.0	Block	exp	39	20140505.111927	diff	100	diff	1	6710
dt	134	18	m	PSYC4802-20142	1.0	Block	exp	40	20140505.111936	diff	60	diff	1	3956
dt	134	18	m	PSYC4802-20142	1.0	Block	exp	41	20140505.111942	diff	100	diff	1	2597
dt	134	18	m	PSYC4802-20142	1.0	Block	exp	42	20140505.111946	diff	60	diff	1	2837
dt	134	18	m	PSYC4802-20142	1.0	Block	exp	43	20140505.111951	same	100	same	1	4782
dt	134	18	m	PSYC4802-20142	1.0	Block	exp	44	20140505.111958	diff	60	diff	1	3570
dt	134	18	m	PSYC4802-20142	1.0	Block	exp	45	20140505.112004	same	100	same	1	5374
dt	134	18	m	PSYC4802-20142	1.0	Block	exp	46	20140505.112011	same	20	same	1	4870
dt	134	18	m	PSYC4802-20142	1.0	Block	exp	47	20140505.112018	diff	100	diff	1	13231
dt	134	18	m	PSYC4802-20142	1.0	Block	exp	48	20140505.112033	diff	60	diff	1	4425
dt	134	18	m	PSYC4802-20142	1.0	Block	exp	49	20140505.112039	same	60	same	1	4407
dt	134	18	m	PSYC4802-20142	1.0	Block	exp	50	20140505.112046	same	100	same	1	6141
dt	134	18	m	PSYC4802-20142	1.0	Block	exp	51	20140505.112104	same	20	same	1	4202
dt	134	18	m	PSYC4802-20142	1.0	Block	exp	52	20140505.112110	diff	20	diff	1	4490
dt	134	18	m	PSYC4802-20142	1.0	Block	exp	53	20140505.112117	diff	20	diff	1	2456
dt	134	18	m	PSYC4802-20142	1.0	Block	exp	54	20140505.112121	diff	20	diff	1	2697
dt	134	18	m	PSYC4802-20142	1.0	Block	exp	55	20140505.112126	same	100	same	1	4759
dt	134	18	m	PSYC4802-20142	1.0	Block	exp	56	20140505.112132	diff	20	same	0	3780
dt	134	18	m	PSYC4802-20142	1.0	Block	exp	57	20140505.112138	diff	60	diff	1	2544
dt	134	18	m	PSYC4802-20142	1.0	Block	exp	58	20140505.112143	diff	20	diff	1	4384
dt	134	18	m	PSYC4802-20142	1.0	Block	exp	59	20140505.112149	diff	60	diff	1	2245
dt	134	18	m	PSYC4802-20142	1.0	Block	exp	60	20140505.112153	same	100	same	1	4999
dt	134	18	m	PSYC4802-20142	1.0	Block	exp	61	20140505.112200	same	60	same	1	7618
dt	134	18	m	PSYC4802-20142	1.0	Block	exp	62	20140505.112210	same	60	same	1	4548
dt	134	18	m	PSYC4802-20142	1.0	Block	exp	63	20140505.112216	same	100	same	1	3523
dt	134	18	m	PSYC4802-20142	1.0	Block	exp	64	20140505.112222	same	60	same	1	3874
dt	134	18	m	PSYC4802-20142	1.0	Block	exp	65	20140505.112228	same	60	same	1	3658
dt	134	18	m	PSYC4802-20142	1.0	Block	exp	66	20140505.112233	diff	20	diff	1	2661
dt	134	18	m	PSYC4802-20142	1.0	Block	exp	67	20140505.112238	same	100	same	1	3189
dt	134	18	m	PSYC4802-20142	1.0	Block	exp	68	20140505.112243	same	60	same	1	10477
dt	134	18	m	PSYC4802-20142	1.0	Block	exp	69	20140505.112255	diff	60	diff	1	5966
dt	134	18	m	PSYC4802-20142	1.0	Block	exp	70	20140505.112303	same	60	same	1	4483
dt	134	18	m	PSYC4802-20142	1.0	Block	exp	71	20140505.112310	same	20	same	1	2961
dt	134	18	m	PSYC4802-20142	1.0	Block	exp	72	20140505.112315	diff	100	same	0	5509
dt	134	18	m	PSYC4802-20142	1.0	Block	exp	73	20140505.112322	same	20	same	1	3153
dt	134	18	m	PSYC4802-20142	1.0	Block	exp	74	20140505.112327	same	20	same	1	5063
dt	134	18	m	PSYC4802-20142	1.0	Block	exp	75	20140505.112334	same	60	same	1	3441
dt	134	18	m	PSYC4802-20142	1.0	Block	exp	76	20140505.112340	same	100	same	1	3130
dt	134	18	m	PSYC4802-20142	1.0	Block	exp	77	20140505.112345	same	60	same	1	3441
dt	134	18	m	PSYC4802-20142	1.0	Block	exp	78	20140505.112350	same	60	same	1	3827
dt	134	18	m	PSYC4802-20142	1.0	Block	exp	79	20140505.112356	diff	60	diff	1	3587
dt	134	18	m	PSYC4802-20142	1.0	Block	exp	80	20140505.112402	diff	60	diff	1	2023
dt	134	18	m	PSYC4802-20142	1.0	Block	exp	81	20140505.112406	same	20	same	1	3528
dt	134	18	m	PSYC4802-20142	1.0	Block	exp	82	20140505.112411	same	20	same	1	2550
dt	134	18	m	PSYC4802-20142	1.0	Block	exp	83	20140505.112416	same	20	same	1	2954
dt	134	18	m	PSYC4802-20142	1.0	Block	exp	84	20140505.112421	diff	20	diff	1	1630
dt	134	18	m	PSYC4802-20142	1.0	Block	exp	85	20140505.112424	diff	60	diff	1	2427
dt	134	18	m	PSYC4802-20142	1.0	Block	exp	86	20140505.112429	diff	60	diff	1	2057
dt	134	18	m	PSYC4802-20142	1.0	Block	exp	87	20140505.112433	diff	20	diff	1	3733
dt	134	18	m	PSYC4802-20142	1.0	Block	exp	88	20140505.112438	diff	100	diff	1	4688
dt	134	18	m	PSYC4802-20142	1.0	Block	exp	89	20140505.112445	diff	100	diff	1	2309
dt	134	18	m	PSYC4802-20142	1.0	Block	exp	90	20140505.112449	diff	60	diff	1	3640
dt	134	18	m	PSYC4802-20142	1.0	Block	exp	91	20140505.112455	same	60	same	1	3528
dt	134	18	m	PSYC4802-20142	1.0	Block	exp	92	20140505.112500	same	60	same	1	2995
dt	134	18	m	PSYC4802-20142	1.0	Block	exp	93	20140505.112505	diff	60	diff	1	2685
dt	134	18	m	PSYC4802-20142	1.0	Block	exp	94	20140505.112510	diff	20	diff	1	2620
dt	134	18	m	PSYC4802-20142	1.0	Block	exp	95	20140505.112515	diff	60	diff	1	3241
dt	134	18	m	PSYC4802-20142	1.0	Block	exp	96	20140505.112520	same	100	same	1	3235
dt	134	18	m	PSYC4802-20142	1.0	Block	exp	97	20140505.112525	diff	100	diff	1	1812
dt	134	18	m	PSYC4802-20142	1.0	Block	exp	98	20140505.112529	same	60	same	1	2749
dt	134	18	m	PSYC4802-20142	1.0	Block	exp	99	20140505.112533	diff	20	diff	1	1571
dt	134	18	m	PSYC4802-20142	1.0	Block	exp	100	20140505.112537	diff	60	diff	1	1683
dt	134	18	m	PSYC4802-20142	1.0	Block	exp	101	20140505.112544	same	100	diff	0	3013
dt	134	18	m	PSYC4802-20142	1.0	Block	exp	102	20140505.112549	same	20	same	1	3288
dt	134	18	m	PSYC4802-20142	1.0	Block	exp	103	20140505.112554	same	20	same	1	2327
dt	134	18	m	PSYC4802-20142	1.0	Block	exp	104	20140505.112558	diff	20	diff	1	5175
dt	134	18	m	PSYC4802-20142	1.0	Block	exp	105	20140505.112605	same	100	same	1	2597
dt	134	18	m	PSYC4802-20142	1.0	Block	exp	106	20140505.112610	same	20	same	1	1794
dt	134	18	m	PSYC4802-20142	1.0	Block	exp	107	20140505.112614	diff	100	diff	1	1765
dt	134	18	m	PSYC4802-20142	1.0	Block	exp	108	20140505.112617	same	100	same	1	3212
dt	134	18	m	PSYC4802-20142	1.0	Block	exp	109	20140505.112622	diff	100	diff	1	2848
dt	134	18	m	PSYC4802-20142	1.0	Block	exp	110	20140505.112627	same	60	same	1	2369
dt	134	18	m	PSYC4802-20142	1.0	Block	exp	111	20140505.112632	same	20	same	1	3341
dt	134	18	m	PSYC4802-20142	1.0	Block	exp	112	20140505.112637	same	20	same	1	3804
dt	134	18	m	PSYC4802-20142	1.0	Block	exp	113	20140505.112643	same	60	same	1	5011
dt	134	18	m	PSYC4802-20142	1.0	Block	exp	114	20140505.112650	same	20	same	1	2403
dt	134	18	m	PSYC4802-20142	1.0	Block	exp	115	20140505.112654	same	20	same	1	2661
dt	134	18	m	PSYC4802-20142	1.0	Block	exp	116	20140505.112659	diff	20	diff	1	2075
dt	134	18	m	PSYC4802-20142	1.0	Block	exp	117	20140505.112703	diff	100	diff	1	1818
dt	134	18	m	PSYC4802-20142	1.0	Block	exp	118	20140505.112707	diff	60	diff	1	1595
dt	134	18	m	PSYC4802-20142	1.0	Block	exp	119	20140505.112710	same	20	same	1	2152
dt	134	18	m	PSYC4802-20142	1.0	Block	exp	120	20140505.112714	same	20	same	1	2667
dt	134	18	m	PSYC4802-20142	1.0	Block	exp	121	20140505.112719	diff	60	diff	1	2860
dt	134	18	m	PSYC4802-20142	1.0	Block	exp	122	20140505.112724	diff	100	diff	1	2866
dt	134	18	m	PSYC4802-20142	1.0	Block	exp	123	20140505.112729	same	100	same	1	3013
dt	134	18	m	PSYC4802-20142	1.0	Block	exp	124	20140505.112734	diff	60	diff	1	1390
dt	134	18	m	PSYC4802-20142	1.0	Block	exp	125	20140505.112737	same	20	same	1	2567
dt	134	18	m	PSYC4802-20142	1.0	Block	exp	126	20140505.112742	same	60	same	1	2069
dt	134	18	m	PSYC4802-20142	1.0	Block	exp	127	20140505.112746	diff	20	diff	1	1647
dt	134	18	m	PSYC4802-20142	1.0	Block	exp	128	20140505.112749	same	60	same	1	3089
dt	134	18	m	PSYC4802-20142	1.0	Block	exp	129	20140505.112754	diff	20	diff	1	3645
dt	134	18	m	PSYC4802-20142	1.0	Block	exp	130	20140505.112800	diff	60	diff	1	1812
dt	134	18	m	PSYC4802-20142	1.0	Block	exp	131	20140505.112804	same	60	same	1	2199
dt	134	18	m	PSYC4802-20142	1.0	Block	exp	132	20140505.112808	same	100	same	1	2989
dt	134	18	m	PSYC4802-20142	1.0	Block	exp	133	20140505.112813	diff	20	diff	1	3910
dt	134	18	m	PSYC4802-20142	1.0	Block	exp	134	20140505.112819	diff	20	diff	1	1964
dt	134	18	m	PSYC4802-20142	1.0	Block	exp	135	20140505.112823	diff	100	diff	1	1595
dt	134	18	m	PSYC4802-20142	1.0	Block	exp	136	20140505.112826	diff	100	diff	1	3411
dt	134	18	m	PSYC4802-20142	1.0	Block	exp	137	20140505.112832	same	100	same	1	3235
dt	134	18	m	PSYC4802-20142	1.0	Block	exp	138	20140505.112837	same	100	same	1	2644
dt	134	18	m	PSYC4802-20142	1.0	Block	exp	139	20140505.112842	same	20	same	1	1712
dt	134	18	m	PSYC4802-20142	1.0	Block	exp	140	20140505.112845	diff	100	diff	1	3282
dt	134	18	m	PSYC4802-20142	1.0	Block	exp	141	20140505.112851	same	20	same	1	2620
dt	134	18	m	PSYC4802-20142	1.0	Block	exp	142	20140505.112855	diff	100	diff	1	3605
dt	134	18	m	PSYC4802-20142	1.0	Block	exp	143	20140505.112901	diff	100	diff	1	2538
dt	134	18	m	PSYC4802-20142	1.0	Block	exp	144	20140505.112905	same	60	same	1	3387
dt	134	18	m	PSYC4802-20142	1.0	Block	exp	145	20140505.112911	diff	100	diff	1	1735
dt	134	18	m	PSYC4802-20142	1.0	Block	exp	146	20140505.112914	diff	100	diff	1	2480
dt	134	18	m	PSYC4802-20142	1.0	Block	exp	147	20140505.112919	same	100	same	1	2826
dt	134	18	m	PSYC4802-20142	1.0	Block	exp	148	20140505.112924	diff	20	diff	1	2714
dt	134	18	m	PSYC4802-20142	1.0	Block	exp	149	20140505.112928	diff	20	diff	1	2638
dt	134	18	m	PSYC4802-20142	1.0	Block	exp	150	20140505.112933	diff	100	diff	1	1272
