Experimenter	Subject	Age	Sex	Experiment	Version	Block	TrialType	Trial	Timestamp	SameDiff	Rotation	Response	Acc	RT
AT	329	22	M	PSYC4802-20144	1.0.1	Block	practice	1	20141103.105614	same	60	same	1	25262
AT	329	22	M	PSYC4802-20144	1.0.1	Block	practice	2	20141103.105642	diff	20	diff	1	14107
AT	329	22	M	PSYC4802-20144	1.0.1	Block	practice	3	20141103.105658	diff	60	diff	1	5151
AT	329	22	M	PSYC4802-20144	1.0.1	Block	practice	4	20141103.105705	same	20	same	1	11641
AT	329	22	M	PSYC4802-20144	1.0.1	Block	practice	5	20141103.105718	diff	60	diff	1	10132
AT	329	22	M	PSYC4802-20144	1.0.1	Block	practice	6	20141103.105731	same	60	same	1	18912
AT	329	22	M	PSYC4802-20144	1.0.1	Block	practice	7	20141103.105751	same	100	diff	0	8326
AT	329	22	M	PSYC4802-20144	1.0.1	Block	practice	8	20141103.105802	diff	20	diff	1	4591
AT	329	22	M	PSYC4802-20144	1.0.1	Block	practice	9	20141103.105808	diff	20	diff	1	13211
AT	329	22	M	PSYC4802-20144	1.0.1	Block	practice	10	20141103.105824	same	20	same	1	11242
AT	329	22	M	PSYC4802-20144	1.0.1	Block	practice	11	20141103.105837	diff	60	diff	1	15512
AT	329	22	M	PSYC4802-20144	1.0.1	Block	practice	12	20141103.105854	diff	60	diff	1	13437
AT	329	22	M	PSYC4802-20144	1.0.1	Block	practice	13	20141103.105910	diff	100	diff	1	13522
AT	329	22	M	PSYC4802-20144	1.0.1	Block	practice	14	20141103.105925	same	60	same	1	12002
AT	329	22	M	PSYC4802-20144	1.0.1	Block	practice	15	20141103.105939	diff	100	diff	1	15067
AT	329	22	M	PSYC4802-20144	1.0.1	Block	practice	16	20141103.105956	diff	100	diff	1	13641
AT	329	22	M	PSYC4802-20144	1.0.1	Block	practice	17	20141103.110012	same	100	same	1	9857
AT	329	22	M	PSYC4802-20144	1.0.1	Block	practice	18	20141103.110024	diff	100	diff	1	4166
AT	329	22	M	PSYC4802-20144	1.0.1	Block	practice	19	20141103.110030	same	100	same	1	12831
AT	329	22	M	PSYC4802-20144	1.0.1	Block	practice	20	20141103.110044	diff	20	diff	1	8462
AT	329	22	M	PSYC4802-20144	1.0.1	Block	practice	21	20141103.110055	same	20	same	1	6167
AT	329	22	M	PSYC4802-20144	1.0.1	Block	practice	22	20141103.110103	same	20	same	1	5102
AT	329	22	M	PSYC4802-20144	1.0.1	Block	practice	23	20141103.110110	diff	20	diff	1	9196
AT	329	22	M	PSYC4802-20144	1.0.1	Block	practice	24	20141103.110121	diff	100	diff	1	13256
AT	329	22	M	PSYC4802-20144	1.0.1	Block	practice	25	20141103.110137	same	20	same	1	7832
AT	329	22	M	PSYC4802-20144	1.0.1	Block	practice	26	20141103.110146	same	60	same	1	6507
AT	329	22	M	PSYC4802-20144	1.0.1	Block	practice	27	20141103.110155	diff	60	diff	1	5777
AT	329	22	M	PSYC4802-20144	1.0.1	Block	practice	28	20141103.110203	same	100	same	1	10042
AT	329	22	M	PSYC4802-20144	1.0.1	Block	practice	29	20141103.110215	same	60	same	1	13267
AT	329	22	M	PSYC4802-20144	1.0.1	Block	practice	30	20141103.110230	same	100	diff	0	8221
AT	329	22	M	PSYC4802-20144	1.0.1	Block	exp	31	20141103.110240	diff	20	diff	1	9267
AT	329	22	M	PSYC4802-20144	1.0.1	Block	exp	32	20141103.110251	diff	20	diff	1	13412
AT	329	22	M	PSYC4802-20144	1.0.1	Block	exp	33	20141103.110307	same	100	same	1	11507
AT	329	22	M	PSYC4802-20144	1.0.1	Block	exp	34	20141103.110320	diff	100	diff	1	8741
AT	329	22	M	PSYC4802-20144	1.0.1	Block	exp	35	20141103.110331	same	60	same	1	5872
AT	329	22	M	PSYC4802-20144	1.0.1	Block	exp	36	20141103.110339	diff	20	diff	1	6512
AT	329	22	M	PSYC4802-20144	1.0.1	Block	exp	37	20141103.110347	diff	100	diff	1	6076
AT	329	22	M	PSYC4802-20144	1.0.1	Block	exp	38	20141103.110355	diff	20	diff	1	10691
AT	329	22	M	PSYC4802-20144	1.0.1	Block	exp	39	20141103.110408	diff	100	diff	1	3556
AT	329	22	M	PSYC4802-20144	1.0.1	Block	exp	40	20141103.110414	diff	20	diff	1	7401
AT	329	22	M	PSYC4802-20144	1.0.1	Block	exp	41	20141103.110423	same	60	same	1	7387
AT	329	22	M	PSYC4802-20144	1.0.1	Block	exp	42	20141103.110432	diff	100	diff	1	12411
AT	329	22	M	PSYC4802-20144	1.0.1	Block	exp	43	20141103.110447	diff	60	diff	1	6952
AT	329	22	M	PSYC4802-20144	1.0.1	Block	exp	44	20141103.110456	diff	60	diff	1	4022
AT	329	22	M	PSYC4802-20144	1.0.1	Block	exp	45	20141103.110502	diff	20	diff	1	7051
AT	329	22	M	PSYC4802-20144	1.0.1	Block	exp	46	20141103.110511	same	100	same	1	8882
AT	329	22	M	PSYC4802-20144	1.0.1	Block	exp	47	20141103.110522	diff	20	diff	1	7827
AT	329	22	M	PSYC4802-20144	1.0.1	Block	exp	48	20141103.110532	same	100	same	1	14471
AT	329	22	M	PSYC4802-20144	1.0.1	Block	exp	49	20141103.110548	same	100	same	1	7556
AT	329	22	M	PSYC4802-20144	1.0.1	Block	exp	50	20141103.110558	same	20	same	1	5151
AT	329	22	M	PSYC4802-20144	1.0.1	Block	exp	51	20141103.110612	diff	60	diff	1	9381
AT	329	22	M	PSYC4802-20144	1.0.1	Block	exp	52	20141103.110624	same	100	same	1	12331
AT	329	22	M	PSYC4802-20144	1.0.1	Block	exp	53	20141103.110638	same	60	same	1	5407
AT	329	22	M	PSYC4802-20144	1.0.1	Block	exp	54	20141103.110646	same	20	same	1	10256
AT	329	22	M	PSYC4802-20144	1.0.1	Block	exp	55	20141103.110658	diff	100	diff	1	5981
AT	329	22	M	PSYC4802-20144	1.0.1	Block	exp	56	20141103.110706	diff	20	diff	1	7486
AT	329	22	M	PSYC4802-20144	1.0.1	Block	exp	57	20141103.110715	diff	60	diff	1	2642
AT	329	22	M	PSYC4802-20144	1.0.1	Block	exp	58	20141103.110720	same	60	same	1	5406
AT	329	22	M	PSYC4802-20144	1.0.1	Block	exp	59	20141103.110727	diff	20	diff	1	6707
AT	329	22	M	PSYC4802-20144	1.0.1	Block	exp	60	20141103.110736	same	20	same	1	7767
AT	329	22	M	PSYC4802-20144	1.0.1	Block	exp	61	20141103.110746	diff	20	diff	1	5762
AT	329	22	M	PSYC4802-20144	1.0.1	Block	exp	62	20141103.110753	same	20	same	1	9371
AT	329	22	M	PSYC4802-20144	1.0.1	Block	exp	63	20141103.110805	diff	100	diff	1	5041
AT	329	22	M	PSYC4802-20144	1.0.1	Block	exp	64	20141103.110812	same	20	same	1	5841
AT	329	22	M	PSYC4802-20144	1.0.1	Block	exp	65	20141103.110820	diff	100	diff	1	5766
AT	329	22	M	PSYC4802-20144	1.0.1	Block	exp	66	20141103.110827	diff	60	diff	1	3226
AT	329	22	M	PSYC4802-20144	1.0.1	Block	exp	67	20141103.110833	diff	60	diff	1	5231
AT	329	22	M	PSYC4802-20144	1.0.1	Block	exp	68	20141103.110840	diff	20	diff	1	4666
AT	329	22	M	PSYC4802-20144	1.0.1	Block	exp	69	20141103.110846	diff	60	diff	1	5531
AT	329	22	M	PSYC4802-20144	1.0.1	Block	exp	70	20141103.110854	same	60	same	1	4392
AT	329	22	M	PSYC4802-20144	1.0.1	Block	exp	71	20141103.110900	same	20	same	1	6376
AT	329	22	M	PSYC4802-20144	1.0.1	Block	exp	72	20141103.110909	same	100	same	1	10641
AT	329	22	M	PSYC4802-20144	1.0.1	Block	exp	73	20141103.110921	diff	100	diff	1	4581
AT	329	22	M	PSYC4802-20144	1.0.1	Block	exp	74	20141103.110928	same	20	same	1	5506
AT	329	22	M	PSYC4802-20144	1.0.1	Block	exp	75	20141103.110935	same	60	same	1	4751
AT	329	22	M	PSYC4802-20144	1.0.1	Block	exp	76	20141103.110942	same	20	same	1	5347
AT	329	22	M	PSYC4802-20144	1.0.1	Block	exp	77	20141103.110950	diff	60	diff	1	4731
AT	329	22	M	PSYC4802-20144	1.0.1	Block	exp	78	20141103.110956	same	20	same	1	3426
AT	329	22	M	PSYC4802-20144	1.0.1	Block	exp	79	20141103.111002	diff	100	diff	1	5741
AT	329	22	M	PSYC4802-20144	1.0.1	Block	exp	80	20141103.111009	same	20	same	1	5111
AT	329	22	M	PSYC4802-20144	1.0.1	Block	exp	81	20141103.111016	diff	20	diff	1	3461
AT	329	22	M	PSYC4802-20144	1.0.1	Block	exp	82	20141103.111022	same	20	same	1	3716
AT	329	22	M	PSYC4802-20144	1.0.1	Block	exp	83	20141103.111028	diff	20	diff	1	7561
AT	329	22	M	PSYC4802-20144	1.0.1	Block	exp	84	20141103.111037	same	20	same	1	4726
AT	329	22	M	PSYC4802-20144	1.0.1	Block	exp	85	20141103.111044	same	100	same	1	6912
AT	329	22	M	PSYC4802-20144	1.0.1	Block	exp	86	20141103.111053	same	60	same	1	8602
AT	329	22	M	PSYC4802-20144	1.0.1	Block	exp	87	20141103.111104	same	60	same	1	8836
AT	329	22	M	PSYC4802-20144	1.0.1	Block	exp	88	20141103.111114	same	20	same	1	7051
AT	329	22	M	PSYC4802-20144	1.0.1	Block	exp	89	20141103.111123	same	20	same	1	3191
AT	329	22	M	PSYC4802-20144	1.0.1	Block	exp	90	20141103.111129	diff	100	diff	1	5111
AT	329	22	M	PSYC4802-20144	1.0.1	Block	exp	91	20141103.111136	same	100	same	1	6007
AT	329	22	M	PSYC4802-20144	1.0.1	Block	exp	92	20141103.111144	same	100	same	1	8621
AT	329	22	M	PSYC4802-20144	1.0.1	Block	exp	93	20141103.111154	diff	20	diff	1	3861
AT	329	22	M	PSYC4802-20144	1.0.1	Block	exp	94	20141103.111200	diff	20	diff	1	8396
AT	329	22	M	PSYC4802-20144	1.0.1	Block	exp	95	20141103.111211	same	60	same	1	4617
AT	329	22	M	PSYC4802-20144	1.0.1	Block	exp	96	20141103.111217	diff	20	diff	1	2311
AT	329	22	M	PSYC4802-20144	1.0.1	Block	exp	97	20141103.111222	diff	60	diff	1	3811
AT	329	22	M	PSYC4802-20144	1.0.1	Block	exp	98	20141103.111227	same	100	same	1	5807
AT	329	22	M	PSYC4802-20144	1.0.1	Block	exp	99	20141103.111235	diff	100	diff	1	4376
AT	329	22	M	PSYC4802-20144	1.0.1	Block	exp	100	20141103.111242	diff	100	diff	1	10832
AT	329	22	M	PSYC4802-20144	1.0.1	Block	exp	101	20141103.111305	same	20	same	1	4791
AT	329	22	M	PSYC4802-20144	1.0.1	Block	exp	102	20141103.111312	diff	100	diff	1	4652
AT	329	22	M	PSYC4802-20144	1.0.1	Block	exp	103	20141103.111319	same	60	same	1	8482
AT	329	22	M	PSYC4802-20144	1.0.1	Block	exp	104	20141103.111329	same	60	same	1	6916
AT	329	22	M	PSYC4802-20144	1.0.1	Block	exp	105	20141103.111338	diff	60	diff	1	5241
AT	329	22	M	PSYC4802-20144	1.0.1	Block	exp	106	20141103.111345	same	20	same	1	8233
AT	329	22	M	PSYC4802-20144	1.0.1	Block	exp	107	20141103.111355	diff	60	diff	1	6201
AT	329	22	M	PSYC4802-20144	1.0.1	Block	exp	108	20141103.111404	same	60	same	1	7577
AT	329	22	M	PSYC4802-20144	1.0.1	Block	exp	109	20141103.111413	diff	100	diff	1	3616
AT	329	22	M	PSYC4802-20144	1.0.1	Block	exp	110	20141103.111419	diff	20	diff	1	4511
AT	329	22	M	PSYC4802-20144	1.0.1	Block	exp	111	20141103.111425	diff	100	diff	1	4521
AT	329	22	M	PSYC4802-20144	1.0.1	Block	exp	112	20141103.111432	same	100	same	1	10647
AT	329	22	M	PSYC4802-20144	1.0.1	Block	exp	113	20141103.111444	diff	100	diff	1	2831
AT	329	22	M	PSYC4802-20144	1.0.1	Block	exp	114	20141103.111449	same	20	same	1	5822
AT	329	22	M	PSYC4802-20144	1.0.1	Block	exp	115	20141103.111457	same	60	same	1	7666
AT	329	22	M	PSYC4802-20144	1.0.1	Block	exp	116	20141103.111507	diff	60	diff	1	5781
AT	329	22	M	PSYC4802-20144	1.0.1	Block	exp	117	20141103.111515	same	100	same	1	5041
AT	329	22	M	PSYC4802-20144	1.0.1	Block	exp	118	20141103.111522	same	20	same	1	7646
AT	329	22	M	PSYC4802-20144	1.0.1	Block	exp	119	20141103.111531	same	60	same	1	5346
AT	329	22	M	PSYC4802-20144	1.0.1	Block	exp	120	20141103.111538	same	20	same	1	5696
AT	329	22	M	PSYC4802-20144	1.0.1	Block	exp	121	20141103.111546	same	100	same	1	7526
AT	329	22	M	PSYC4802-20144	1.0.1	Block	exp	122	20141103.111556	diff	60	diff	1	7346
AT	329	22	M	PSYC4802-20144	1.0.1	Block	exp	123	20141103.111605	diff	20	diff	1	4651
AT	329	22	M	PSYC4802-20144	1.0.1	Block	exp	124	20141103.111612	same	100	diff	0	3137
AT	329	22	M	PSYC4802-20144	1.0.1	Block	exp	125	20141103.111617	diff	100	diff	1	5506
AT	329	22	M	PSYC4802-20144	1.0.1	Block	exp	126	20141103.111624	diff	60	diff	1	3536
AT	329	22	M	PSYC4802-20144	1.0.1	Block	exp	127	20141103.111630	diff	100	diff	1	3081
AT	329	22	M	PSYC4802-20144	1.0.1	Block	exp	128	20141103.111635	same	60	same	1	4161
AT	329	22	M	PSYC4802-20144	1.0.1	Block	exp	129	20141103.111641	same	60	same	1	16206
AT	329	22	M	PSYC4802-20144	1.0.1	Block	exp	130	20141103.111659	same	100	same	1	12917
AT	329	22	M	PSYC4802-20144	1.0.1	Block	exp	131	20141103.111714	diff	100	diff	1	7712
AT	329	22	M	PSYC4802-20144	1.0.1	Block	exp	132	20141103.111724	same	20	same	1	9141
AT	329	22	M	PSYC4802-20144	1.0.1	Block	exp	133	20141103.111735	diff	20	diff	1	7451
AT	329	22	M	PSYC4802-20144	1.0.1	Block	exp	134	20141103.111744	diff	60	diff	1	6296
AT	329	22	M	PSYC4802-20144	1.0.1	Block	exp	135	20141103.111753	same	100	same	1	8737
AT	329	22	M	PSYC4802-20144	1.0.1	Block	exp	136	20141103.111803	same	60	same	1	7531
AT	329	22	M	PSYC4802-20144	1.0.1	Block	exp	137	20141103.111813	same	100	same	1	7701
AT	329	22	M	PSYC4802-20144	1.0.1	Block	exp	138	20141103.111822	diff	100	diff	1	4171
AT	329	22	M	PSYC4802-20144	1.0.1	Block	exp	139	20141103.111829	same	100	same	1	8722
AT	329	22	M	PSYC4802-20144	1.0.1	Block	exp	140	20141103.111839	same	100	same	1	6351
AT	329	22	M	PSYC4802-20144	1.0.1	Block	exp	141	20141103.111848	diff	60	diff	1	3466
AT	329	22	M	PSYC4802-20144	1.0.1	Block	exp	142	20141103.111853	diff	60	diff	1	8008
AT	329	22	M	PSYC4802-20144	1.0.1	Block	exp	143	20141103.111903	diff	60	diff	1	3721
AT	329	22	M	PSYC4802-20144	1.0.1	Block	exp	144	20141103.111909	diff	60	diff	1	2546
AT	329	22	M	PSYC4802-20144	1.0.1	Block	exp	145	20141103.111913	same	60	same	1	6741
AT	329	22	M	PSYC4802-20144	1.0.1	Block	exp	146	20141103.111922	diff	20	diff	1	5671
AT	329	22	M	PSYC4802-20144	1.0.1	Block	exp	147	20141103.111930	diff	60	diff	1	6166
AT	329	22	M	PSYC4802-20144	1.0.1	Block	exp	148	20141103.111938	same	100	same	1	16066
AT	329	22	M	PSYC4802-20144	1.0.1	Block	exp	149	20141103.111956	same	60	same	1	5946
AT	329	22	M	PSYC4802-20144	1.0.1	Block	exp	150	20141103.112004	same	60	same	1	5966
