Experimenter	Subject	Age	Sex	Experiment	Version	Block	TrialType	Trial	Timestamp	SameDiff	Rotation	Response	Acc	RT
TL	213	21	F	PSYC4802-20144	1.0	Block	practice	1	20140929.110020	same	60	same	1	529501
TL	213	21	F	PSYC4802-20144	1.0	Block	practice	2	20140929.110912	diff	100	diff	1	10102
TL	213	21	F	PSYC4802-20144	1.0	Block	practice	3	20140929.110925	diff	20	diff	1	7166
TL	213	21	F	PSYC4802-20144	1.0	Block	practice	4	20140929.110934	same	60	same	1	6352
TL	213	21	F	PSYC4802-20144	1.0	Block	practice	5	20140929.110942	diff	60	diff	1	2856
TL	213	21	F	PSYC4802-20144	1.0	Block	practice	6	20140929.110947	same	100	diff	0	11352
TL	213	21	F	PSYC4802-20144	1.0	Block	practice	7	20140929.111000	same	60	same	1	7301
TL	213	21	F	PSYC4802-20144	1.0	Block	practice	8	20140929.111010	diff	100	diff	1	2857
TL	213	21	F	PSYC4802-20144	1.0	Block	practice	9	20140929.111014	diff	100	diff	1	5356
TL	213	21	F	PSYC4802-20144	1.0	Block	practice	10	20140929.111022	diff	100	diff	1	9121
TL	213	21	F	PSYC4802-20144	1.0	Block	practice	11	20140929.111033	diff	60	diff	1	8306
TL	213	21	F	PSYC4802-20144	1.0	Block	practice	12	20140929.111043	same	100	same	1	9601
TL	213	21	F	PSYC4802-20144	1.0	Block	practice	13	20140929.111055	diff	60	diff	1	8516
TL	213	21	F	PSYC4802-20144	1.0	Block	practice	14	20140929.111105	diff	20	diff	1	3826
TL	213	21	F	PSYC4802-20144	1.0	Block	practice	15	20140929.111111	same	100	same	1	7686
TL	213	21	F	PSYC4802-20144	1.0	Block	practice	16	20140929.111121	diff	60	diff	1	2236
TL	213	21	F	PSYC4802-20144	1.0	Block	practice	17	20140929.111125	diff	100	diff	1	3791
TL	213	21	F	PSYC4802-20144	1.0	Block	practice	18	20140929.111131	same	20	same	1	3332
TL	213	21	F	PSYC4802-20144	1.0	Block	practice	19	20140929.111136	same	100	same	1	6376
TL	213	21	F	PSYC4802-20144	1.0	Block	practice	20	20140929.111145	same	20	same	1	5271
TL	213	21	F	PSYC4802-20144	1.0	Block	practice	21	20140929.111152	same	60	same	1	10007
TL	213	21	F	PSYC4802-20144	1.0	Block	practice	22	20140929.111204	diff	20	diff	1	4591
TL	213	21	F	PSYC4802-20144	1.0	Block	practice	23	20140929.111211	same	20	same	1	3971
TL	213	21	F	PSYC4802-20144	1.0	Block	practice	24	20140929.111217	diff	60	same	0	5226
TL	213	21	F	PSYC4802-20144	1.0	Block	practice	25	20140929.111224	same	20	same	1	4541
TL	213	21	F	PSYC4802-20144	1.0	Block	practice	26	20140929.111230	diff	20	diff	1	5616
TL	213	21	F	PSYC4802-20144	1.0	Block	practice	27	20140929.111238	same	100	same	1	6081
TL	213	21	F	PSYC4802-20144	1.0	Block	practice	28	20140929.111246	diff	20	diff	1	2841
TL	213	21	F	PSYC4802-20144	1.0	Block	practice	29	20140929.111251	same	60	same	1	8178
TL	213	21	F	PSYC4802-20144	1.0	Block	practice	30	20140929.111301	same	20	same	1	3476
TL	213	21	F	PSYC4802-20144	1.0	Block	exp	31	20140929.111307	same	60	diff	0	6476
TL	213	21	F	PSYC4802-20144	1.0	Block	exp	32	20140929.111315	same	100	diff	0	7011
TL	213	21	F	PSYC4802-20144	1.0	Block	exp	33	20140929.111324	same	20	same	1	5506
TL	213	21	F	PSYC4802-20144	1.0	Block	exp	34	20140929.111332	same	60	same	1	7466
TL	213	21	F	PSYC4802-20144	1.0	Block	exp	35	20140929.111341	same	100	same	1	7791
TL	213	21	F	PSYC4802-20144	1.0	Block	exp	36	20140929.111351	same	20	same	1	4451
TL	213	21	F	PSYC4802-20144	1.0	Block	exp	37	20140929.111357	same	100	diff	0	4701
TL	213	21	F	PSYC4802-20144	1.0	Block	exp	38	20140929.111404	same	100	same	1	2726
TL	213	21	F	PSYC4802-20144	1.0	Block	exp	39	20140929.111409	diff	60	diff	1	11716
TL	213	21	F	PSYC4802-20144	1.0	Block	exp	40	20140929.111423	diff	60	diff	1	5006
TL	213	21	F	PSYC4802-20144	1.0	Block	exp	41	20140929.111430	diff	100	same	0	10792
TL	213	21	F	PSYC4802-20144	1.0	Block	exp	42	20140929.111443	diff	100	diff	1	12922
TL	213	21	F	PSYC4802-20144	1.0	Block	exp	43	20140929.111458	same	100	diff	0	11546
TL	213	21	F	PSYC4802-20144	1.0	Block	exp	44	20140929.111511	diff	60	diff	1	7447
TL	213	21	F	PSYC4802-20144	1.0	Block	exp	45	20140929.111521	same	20	same	1	6186
TL	213	21	F	PSYC4802-20144	1.0	Block	exp	46	20140929.111529	diff	100	diff	1	3216
TL	213	21	F	PSYC4802-20144	1.0	Block	exp	47	20140929.111534	same	60	same	1	6582
TL	213	21	F	PSYC4802-20144	1.0	Block	exp	48	20140929.111543	same	100	same	1	6686
TL	213	21	F	PSYC4802-20144	1.0	Block	exp	49	20140929.111551	diff	20	same	0	4761
TL	213	21	F	PSYC4802-20144	1.0	Block	exp	50	20140929.111558	same	60	same	1	6222
TL	213	21	F	PSYC4802-20144	1.0	Block	exp	51	20140929.111617	diff	60	diff	1	5007
TL	213	21	F	PSYC4802-20144	1.0	Block	exp	52	20140929.111624	same	20	same	1	4146
TL	213	21	F	PSYC4802-20144	1.0	Block	exp	53	20140929.111630	diff	20	diff	1	7142
TL	213	21	F	PSYC4802-20144	1.0	Block	exp	54	20140929.111640	diff	100	diff	1	5831
TL	213	21	F	PSYC4802-20144	1.0	Block	exp	55	20140929.111647	diff	100	diff	1	7342
TL	213	21	F	PSYC4802-20144	1.0	Block	exp	56	20140929.111657	diff	60	diff	1	4381
TL	213	21	F	PSYC4802-20144	1.0	Block	exp	57	20140929.111703	diff	60	diff	1	2976
TL	213	21	F	PSYC4802-20144	1.0	Block	exp	58	20140929.111708	same	100	same	1	5141
TL	213	21	F	PSYC4802-20144	1.0	Block	exp	59	20140929.111715	same	60	same	1	4637
TL	213	21	F	PSYC4802-20144	1.0	Block	exp	60	20140929.111722	diff	20	diff	1	3461
TL	213	21	F	PSYC4802-20144	1.0	Block	exp	61	20140929.111728	diff	100	diff	1	2381
TL	213	21	F	PSYC4802-20144	1.0	Block	exp	62	20140929.111732	same	20	same	1	4276
TL	213	21	F	PSYC4802-20144	1.0	Block	exp	63	20140929.111738	diff	60	diff	1	3806
TL	213	21	F	PSYC4802-20144	1.0	Block	exp	64	20140929.111744	same	100	same	1	6171
TL	213	21	F	PSYC4802-20144	1.0	Block	exp	65	20140929.111752	diff	20	diff	1	3851
TL	213	21	F	PSYC4802-20144	1.0	Block	exp	66	20140929.111758	diff	60	diff	1	9696
TL	213	21	F	PSYC4802-20144	1.0	Block	exp	67	20140929.111810	same	60	same	1	3466
TL	213	21	F	PSYC4802-20144	1.0	Block	exp	68	20140929.111815	diff	20	diff	1	3927
TL	213	21	F	PSYC4802-20144	1.0	Block	exp	69	20140929.111821	same	60	same	1	3836
TL	213	21	F	PSYC4802-20144	1.0	Block	exp	70	20140929.111827	diff	20	diff	1	2086
TL	213	21	F	PSYC4802-20144	1.0	Block	exp	71	20140929.111831	diff	20	diff	1	2652
TL	213	21	F	PSYC4802-20144	1.0	Block	exp	72	20140929.111836	same	60	same	1	3936
TL	213	21	F	PSYC4802-20144	1.0	Block	exp	73	20140929.111842	diff	20	diff	1	1567
TL	213	21	F	PSYC4802-20144	1.0	Block	exp	74	20140929.111846	same	20	same	1	2216
TL	213	21	F	PSYC4802-20144	1.0	Block	exp	75	20140929.111850	diff	100	diff	1	2781
TL	213	21	F	PSYC4802-20144	1.0	Block	exp	76	20140929.111855	same	100	diff	0	1341
TL	213	21	F	PSYC4802-20144	1.0	Block	exp	77	20140929.111858	same	60	same	1	5312
TL	213	21	F	PSYC4802-20144	1.0	Block	exp	78	20140929.111905	same	60	same	1	4452
TL	213	21	F	PSYC4802-20144	1.0	Block	exp	79	20140929.111912	same	100	diff	0	1631
TL	213	21	F	PSYC4802-20144	1.0	Block	exp	80	20140929.111916	diff	100	same	0	822
TL	213	21	F	PSYC4802-20144	1.0	Block	exp	81	20140929.111918	same	20	same	1	3471
TL	213	21	F	PSYC4802-20144	1.0	Block	exp	82	20140929.111924	same	20	same	1	3161
TL	213	21	F	PSYC4802-20144	1.0	Block	exp	83	20140929.111929	diff	60	diff	1	3601
TL	213	21	F	PSYC4802-20144	1.0	Block	exp	84	20140929.111935	diff	20	diff	1	5401
TL	213	21	F	PSYC4802-20144	1.0	Block	exp	85	20140929.111942	same	100	diff	0	5936
TL	213	21	F	PSYC4802-20144	1.0	Block	exp	86	20140929.111950	diff	60	diff	1	6126
TL	213	21	F	PSYC4802-20144	1.0	Block	exp	87	20140929.111958	same	20	same	1	4192
TL	213	21	F	PSYC4802-20144	1.0	Block	exp	88	20140929.112005	diff	60	diff	1	6071
TL	213	21	F	PSYC4802-20144	1.0	Block	exp	89	20140929.112013	diff	20	diff	1	3206
TL	213	21	F	PSYC4802-20144	1.0	Block	exp	90	20140929.112018	same	100	diff	0	7656
TL	213	21	F	PSYC4802-20144	1.0	Block	exp	91	20140929.112028	diff	20	diff	1	7627
TL	213	21	F	PSYC4802-20144	1.0	Block	exp	92	20140929.112037	same	100	same	1	7421
TL	213	21	F	PSYC4802-20144	1.0	Block	exp	93	20140929.112047	same	100	same	1	9172
TL	213	21	F	PSYC4802-20144	1.0	Block	exp	94	20140929.112058	diff	60	diff	1	2111
TL	213	21	F	PSYC4802-20144	1.0	Block	exp	95	20140929.112102	same	100	same	1	7496
TL	213	21	F	PSYC4802-20144	1.0	Block	exp	96	20140929.112112	diff	100	same	0	5826
TL	213	21	F	PSYC4802-20144	1.0	Block	exp	97	20140929.112120	same	60	same	1	7011
TL	213	21	F	PSYC4802-20144	1.0	Block	exp	98	20140929.112129	diff	100	diff	1	2536
TL	213	21	F	PSYC4802-20144	1.0	Block	exp	99	20140929.112133	diff	60	diff	1	2971
TL	213	21	F	PSYC4802-20144	1.0	Block	exp	100	20140929.112138	same	60	diff	0	4841
TL	213	21	F	PSYC4802-20144	1.0	Block	exp	101	20140929.112147	same	100	same	1	6951
TL	213	21	F	PSYC4802-20144	1.0	Block	exp	102	20140929.112156	diff	100	diff	1	3466
TL	213	21	F	PSYC4802-20144	1.0	Block	exp	103	20140929.112202	same	20	same	1	4047
TL	213	21	F	PSYC4802-20144	1.0	Block	exp	104	20140929.112208	same	100	diff	0	6497
TL	213	21	F	PSYC4802-20144	1.0	Block	exp	105	20140929.112216	same	60	diff	0	7082
TL	213	21	F	PSYC4802-20144	1.0	Block	exp	106	20140929.112225	diff	20	diff	1	3572
TL	213	21	F	PSYC4802-20144	1.0	Block	exp	107	20140929.112231	same	100	diff	0	12662
TL	213	21	F	PSYC4802-20144	1.0	Block	exp	108	20140929.112246	same	60	same	1	6006
TL	213	21	F	PSYC4802-20144	1.0	Block	exp	109	20140929.112254	diff	60	diff	1	7291
TL	213	21	F	PSYC4802-20144	1.0	Block	exp	110	20140929.112303	diff	100	diff	1	4471
TL	213	21	F	PSYC4802-20144	1.0	Block	exp	111	20140929.112310	same	60	same	1	7281
TL	213	21	F	PSYC4802-20144	1.0	Block	exp	112	20140929.112319	same	20	same	1	3601
TL	213	21	F	PSYC4802-20144	1.0	Block	exp	113	20140929.112324	diff	20	diff	1	3816
TL	213	21	F	PSYC4802-20144	1.0	Block	exp	114	20140929.112330	same	60	same	1	4446
TL	213	21	F	PSYC4802-20144	1.0	Block	exp	115	20140929.112337	diff	100	diff	1	5812
TL	213	21	F	PSYC4802-20144	1.0	Block	exp	116	20140929.112345	diff	100	diff	1	4241
TL	213	21	F	PSYC4802-20144	1.0	Block	exp	117	20140929.112351	same	20	same	1	4951
TL	213	21	F	PSYC4802-20144	1.0	Block	exp	118	20140929.112358	diff	20	diff	1	2391
TL	213	21	F	PSYC4802-20144	1.0	Block	exp	119	20140929.112402	same	60	same	1	3706
TL	213	21	F	PSYC4802-20144	1.0	Block	exp	120	20140929.112408	diff	20	diff	1	6076
TL	213	21	F	PSYC4802-20144	1.0	Block	exp	121	20140929.112416	diff	100	diff	1	3166
TL	213	21	F	PSYC4802-20144	1.0	Block	exp	122	20140929.112421	diff	60	diff	1	4366
TL	213	21	F	PSYC4802-20144	1.0	Block	exp	123	20140929.112428	same	20	same	1	3871
TL	213	21	F	PSYC4802-20144	1.0	Block	exp	124	20140929.112434	diff	100	diff	1	3756
TL	213	21	F	PSYC4802-20144	1.0	Block	exp	125	20140929.112439	same	20	same	1	5136
TL	213	21	F	PSYC4802-20144	1.0	Block	exp	126	20140929.112447	diff	100	same	0	4766
TL	213	21	F	PSYC4802-20144	1.0	Block	exp	127	20140929.112453	diff	100	diff	1	5306
TL	213	21	F	PSYC4802-20144	1.0	Block	exp	128	20140929.112501	diff	60	diff	1	3461
TL	213	21	F	PSYC4802-20144	1.0	Block	exp	129	20140929.112506	diff	60	diff	1	2551
TL	213	21	F	PSYC4802-20144	1.0	Block	exp	130	20140929.112511	same	20	same	1	5516
TL	213	21	F	PSYC4802-20144	1.0	Block	exp	131	20140929.112518	diff	20	diff	1	1566
TL	213	21	F	PSYC4802-20144	1.0	Block	exp	132	20140929.112522	same	20	same	1	2386
TL	213	21	F	PSYC4802-20144	1.0	Block	exp	133	20140929.112526	same	100	same	1	5936
TL	213	21	F	PSYC4802-20144	1.0	Block	exp	134	20140929.112534	diff	60	diff	1	4761
TL	213	21	F	PSYC4802-20144	1.0	Block	exp	135	20140929.112541	same	20	same	1	3926
TL	213	21	F	PSYC4802-20144	1.0	Block	exp	136	20140929.112547	diff	20	diff	1	5311
TL	213	21	F	PSYC4802-20144	1.0	Block	exp	137	20140929.112554	same	20	same	1	3786
TL	213	21	F	PSYC4802-20144	1.0	Block	exp	138	20140929.112600	same	20	same	1	2006
TL	213	21	F	PSYC4802-20144	1.0	Block	exp	139	20140929.112604	diff	60	same	0	3381
TL	213	21	F	PSYC4802-20144	1.0	Block	exp	140	20140929.112610	same	100	same	1	2746
TL	213	21	F	PSYC4802-20144	1.0	Block	exp	141	20140929.112615	diff	100	diff	1	1986
TL	213	21	F	PSYC4802-20144	1.0	Block	exp	142	20140929.112619	diff	60	diff	1	4856
TL	213	21	F	PSYC4802-20144	1.0	Block	exp	143	20140929.112625	same	60	diff	0	3441
TL	213	21	F	PSYC4802-20144	1.0	Block	exp	144	20140929.112631	diff	20	diff	1	2537
TL	213	21	F	PSYC4802-20144	1.0	Block	exp	145	20140929.112636	diff	20	same	0	5892
TL	213	21	F	PSYC4802-20144	1.0	Block	exp	146	20140929.112643	same	60	diff	0	2691
TL	213	21	F	PSYC4802-20144	1.0	Block	exp	147	20140929.112648	same	20	same	1	3301
TL	213	21	F	PSYC4802-20144	1.0	Block	exp	148	20140929.112654	diff	100	diff	1	4366
TL	213	21	F	PSYC4802-20144	1.0	Block	exp	149	20140929.112700	diff	20	diff	1	1391
TL	213	21	F	PSYC4802-20144	1.0	Block	exp	150	20140929.112703	same	60	diff	0	4617
