Experimenter	Subject	Age	Sex	Experiment	Version	Block	TrialType	Trial	Timestamp	SameDiff	Rotation	Response	Acc	RT
nb	336	24	M	PSYC4802-20144	1.0.1	Block	practice	1	20141103.115152	diff	60	diff	1	5912
nb	336	24	M	PSYC4802-20144	1.0.1	Block	practice	2	20141103.115200	diff	60	same	0	7197
nb	336	24	M	PSYC4802-20144	1.0.1	Block	practice	3	20141103.115209	same	100	same	1	11997
nb	336	24	M	PSYC4802-20144	1.0.1	Block	practice	4	20141103.115223	diff	20	same	0	12471
nb	336	24	M	PSYC4802-20144	1.0.1	Block	practice	5	20141103.115237	same	20	same	1	4297
nb	336	24	M	PSYC4802-20144	1.0.1	Block	practice	6	20141103.115244	same	20	same	1	3491
nb	336	24	M	PSYC4802-20144	1.0.1	Block	practice	7	20141103.115249	diff	20	diff	1	3111
nb	336	24	M	PSYC4802-20144	1.0.1	Block	practice	8	20141103.115254	same	100	diff	0	3517
nb	336	24	M	PSYC4802-20144	1.0.1	Block	practice	9	20141103.115300	diff	100	diff	1	8787
nb	336	24	M	PSYC4802-20144	1.0.1	Block	practice	10	20141103.115311	diff	100	same	0	6342
nb	336	24	M	PSYC4802-20144	1.0.1	Block	practice	11	20141103.115319	diff	100	same	0	3501
nb	336	24	M	PSYC4802-20144	1.0.1	Block	practice	12	20141103.115325	same	20	same	1	7006
nb	336	24	M	PSYC4802-20144	1.0.1	Block	practice	13	20141103.115334	same	60	same	1	6512
nb	336	24	M	PSYC4802-20144	1.0.1	Block	practice	14	20141103.115342	diff	60	diff	1	9561
nb	336	24	M	PSYC4802-20144	1.0.1	Block	practice	15	20141103.115354	diff	20	diff	1	6522
nb	336	24	M	PSYC4802-20144	1.0.1	Block	practice	16	20141103.115402	diff	100	same	0	7491
nb	336	24	M	PSYC4802-20144	1.0.1	Block	practice	17	20141103.115412	same	60	same	1	5006
nb	336	24	M	PSYC4802-20144	1.0.1	Block	practice	18	20141103.115419	same	60	same	1	1361
nb	336	24	M	PSYC4802-20144	1.0.1	Block	practice	19	20141103.115422	same	100	diff	0	1436
nb	336	24	M	PSYC4802-20144	1.0.1	Block	practice	20	20141103.115426	same	60	diff	0	1271
nb	336	24	M	PSYC4802-20144	1.0.1	Block	practice	21	20141103.115429	same	20	same	1	3386
nb	336	24	M	PSYC4802-20144	1.0.1	Block	practice	22	20141103.115435	same	20	same	1	2546
nb	336	24	M	PSYC4802-20144	1.0.1	Block	practice	23	20141103.115439	diff	100	same	0	3722
nb	336	24	M	PSYC4802-20144	1.0.1	Block	practice	24	20141103.115445	diff	60	diff	1	5927
nb	336	24	M	PSYC4802-20144	1.0.1	Block	practice	25	20141103.115453	diff	20	diff	1	3792
nb	336	24	M	PSYC4802-20144	1.0.1	Block	practice	26	20141103.115459	diff	60	same	0	4182
nb	336	24	M	PSYC4802-20144	1.0.1	Block	practice	27	20141103.115505	same	100	same	1	8262
nb	336	24	M	PSYC4802-20144	1.0.1	Block	practice	28	20141103.115515	diff	20	same	0	5047
nb	336	24	M	PSYC4802-20144	1.0.1	Block	practice	29	20141103.115522	same	100	same	1	3941
nb	336	24	M	PSYC4802-20144	1.0.1	Block	practice	30	20141103.115528	same	60	same	1	4846
nb	336	24	M	PSYC4802-20144	1.0.1	Block	exp	31	20141103.115535	diff	100	diff	1	8231
nb	336	24	M	PSYC4802-20144	1.0.1	Block	exp	32	20141103.115546	diff	20	diff	1	8197
nb	336	24	M	PSYC4802-20144	1.0.1	Block	exp	33	20141103.115556	same	20	same	1	3076
nb	336	24	M	PSYC4802-20144	1.0.1	Block	exp	34	20141103.115601	same	60	same	1	5941
nb	336	24	M	PSYC4802-20144	1.0.1	Block	exp	35	20141103.115609	same	60	same	1	5681
nb	336	24	M	PSYC4802-20144	1.0.1	Block	exp	36	20141103.115616	diff	20	same	0	3081
nb	336	24	M	PSYC4802-20144	1.0.1	Block	exp	37	20141103.115622	same	60	same	1	2686
nb	336	24	M	PSYC4802-20144	1.0.1	Block	exp	38	20141103.115626	diff	100	diff	1	6367
nb	336	24	M	PSYC4802-20144	1.0.1	Block	exp	39	20141103.115635	diff	60	diff	1	6607
nb	336	24	M	PSYC4802-20144	1.0.1	Block	exp	40	20141103.115643	same	60	same	1	3747
nb	336	24	M	PSYC4802-20144	1.0.1	Block	exp	41	20141103.115649	diff	60	diff	1	6611
nb	336	24	M	PSYC4802-20144	1.0.1	Block	exp	42	20141103.115658	same	20	same	1	3391
nb	336	24	M	PSYC4802-20144	1.0.1	Block	exp	43	20141103.115703	same	20	same	1	2271
nb	336	24	M	PSYC4802-20144	1.0.1	Block	exp	44	20141103.115708	diff	100	diff	1	4841
nb	336	24	M	PSYC4802-20144	1.0.1	Block	exp	45	20141103.115714	diff	20	same	0	3746
nb	336	24	M	PSYC4802-20144	1.0.1	Block	exp	46	20141103.115720	diff	60	diff	1	6682
nb	336	24	M	PSYC4802-20144	1.0.1	Block	exp	47	20141103.115729	diff	100	same	0	7372
nb	336	24	M	PSYC4802-20144	1.0.1	Block	exp	48	20141103.115738	same	100	same	1	5766
nb	336	24	M	PSYC4802-20144	1.0.1	Block	exp	49	20141103.115746	same	60	same	1	6422
nb	336	24	M	PSYC4802-20144	1.0.1	Block	exp	50	20141103.115755	same	60	same	1	4161
nb	336	24	M	PSYC4802-20144	1.0.1	Block	exp	51	20141103.115812	diff	20	same	0	5106
nb	336	24	M	PSYC4802-20144	1.0.1	Block	exp	52	20141103.115819	diff	100	diff	1	4761
nb	336	24	M	PSYC4802-20144	1.0.1	Block	exp	53	20141103.115826	diff	100	diff	1	5346
nb	336	24	M	PSYC4802-20144	1.0.1	Block	exp	54	20141103.115833	diff	60	diff	1	9346
nb	336	24	M	PSYC4802-20144	1.0.1	Block	exp	55	20141103.115845	diff	20	diff	1	8351
nb	336	24	M	PSYC4802-20144	1.0.1	Block	exp	56	20141103.115855	diff	20	diff	1	2956
nb	336	24	M	PSYC4802-20144	1.0.1	Block	exp	57	20141103.115900	same	100	same	1	13752
nb	336	24	M	PSYC4802-20144	1.0.1	Block	exp	58	20141103.115916	same	100	diff	0	5826
nb	336	24	M	PSYC4802-20144	1.0.1	Block	exp	59	20141103.115924	same	20	same	1	3031
nb	336	24	M	PSYC4802-20144	1.0.1	Block	exp	60	20141103.115929	same	60	diff	0	7511
nb	336	24	M	PSYC4802-20144	1.0.1	Block	exp	61	20141103.115939	same	20	same	1	4846
nb	336	24	M	PSYC4802-20144	1.0.1	Block	exp	62	20141103.115945	same	20	same	1	4477
nb	336	24	M	PSYC4802-20144	1.0.1	Block	exp	63	20141103.115952	same	100	same	1	8622
nb	336	24	M	PSYC4802-20144	1.0.1	Block	exp	64	20141103.120003	diff	100	diff	1	7267
nb	336	24	M	PSYC4802-20144	1.0.1	Block	exp	65	20141103.120012	same	20	same	1	2992
nb	336	24	M	PSYC4802-20144	1.0.1	Block	exp	66	20141103.120017	same	100	diff	0	5951
nb	336	24	M	PSYC4802-20144	1.0.1	Block	exp	67	20141103.120025	same	100	same	1	5946
nb	336	24	M	PSYC4802-20144	1.0.1	Block	exp	68	20141103.120033	diff	100	diff	1	9717
nb	336	24	M	PSYC4802-20144	1.0.1	Block	exp	69	20141103.120045	same	20	same	1	4016
nb	336	24	M	PSYC4802-20144	1.0.1	Block	exp	70	20141103.120051	diff	60	diff	1	9587
nb	336	24	M	PSYC4802-20144	1.0.1	Block	exp	71	20141103.120102	same	100	same	1	7011
nb	336	24	M	PSYC4802-20144	1.0.1	Block	exp	72	20141103.120111	same	60	diff	0	10601
nb	336	24	M	PSYC4802-20144	1.0.1	Block	exp	73	20141103.120124	same	60	same	1	6256
nb	336	24	M	PSYC4802-20144	1.0.1	Block	exp	74	20141103.120132	same	60	same	1	7052
nb	336	24	M	PSYC4802-20144	1.0.1	Block	exp	75	20141103.120142	same	60	same	1	4757
nb	336	24	M	PSYC4802-20144	1.0.1	Block	exp	76	20141103.120148	same	60	diff	0	5921
nb	336	24	M	PSYC4802-20144	1.0.1	Block	exp	77	20141103.120156	diff	60	diff	1	4917
nb	336	24	M	PSYC4802-20144	1.0.1	Block	exp	78	20141103.120203	diff	20	diff	1	10597
nb	336	24	M	PSYC4802-20144	1.0.1	Block	exp	79	20141103.120216	same	20	same	1	3281
nb	336	24	M	PSYC4802-20144	1.0.1	Block	exp	80	20141103.120221	diff	20	same	0	6466
nb	336	24	M	PSYC4802-20144	1.0.1	Block	exp	81	20141103.120230	same	60	same	1	7111
nb	336	24	M	PSYC4802-20144	1.0.1	Block	exp	82	20141103.120239	same	100	same	1	6506
nb	336	24	M	PSYC4802-20144	1.0.1	Block	exp	83	20141103.120248	diff	20	diff	1	6877
nb	336	24	M	PSYC4802-20144	1.0.1	Block	exp	84	20141103.120257	same	100	same	1	6132
nb	336	24	M	PSYC4802-20144	1.0.1	Block	exp	85	20141103.120305	same	20	same	1	5586
nb	336	24	M	PSYC4802-20144	1.0.1	Block	exp	86	20141103.120312	diff	60	diff	1	4811
nb	336	24	M	PSYC4802-20144	1.0.1	Block	exp	87	20141103.120319	same	20	same	1	3627
nb	336	24	M	PSYC4802-20144	1.0.1	Block	exp	88	20141103.120325	same	20	same	1	2581
nb	336	24	M	PSYC4802-20144	1.0.1	Block	exp	89	20141103.120330	diff	20	diff	1	9887
nb	336	24	M	PSYC4802-20144	1.0.1	Block	exp	90	20141103.120342	diff	60	diff	1	4782
nb	336	24	M	PSYC4802-20144	1.0.1	Block	exp	91	20141103.120348	diff	100	diff	1	4901
nb	336	24	M	PSYC4802-20144	1.0.1	Block	exp	92	20141103.120355	same	20	same	1	2611
nb	336	24	M	PSYC4802-20144	1.0.1	Block	exp	93	20141103.120400	same	100	diff	0	4991
nb	336	24	M	PSYC4802-20144	1.0.1	Block	exp	94	20141103.120407	same	100	same	1	8911
nb	336	24	M	PSYC4802-20144	1.0.1	Block	exp	95	20141103.120418	same	20	same	1	2596
nb	336	24	M	PSYC4802-20144	1.0.1	Block	exp	96	20141103.120423	diff	100	same	0	3786
nb	336	24	M	PSYC4802-20144	1.0.1	Block	exp	97	20141103.120429	diff	100	same	0	6658
nb	336	24	M	PSYC4802-20144	1.0.1	Block	exp	98	20141103.120437	diff	60	same	0	5162
nb	336	24	M	PSYC4802-20144	1.0.1	Block	exp	99	20141103.120445	same	60	same	1	10441
nb	336	24	M	PSYC4802-20144	1.0.1	Block	exp	100	20141103.120457	same	100	same	1	5046
nb	336	24	M	PSYC4802-20144	1.0.1	Block	exp	101	20141103.120523	same	100	same	1	4391
nb	336	24	M	PSYC4802-20144	1.0.1	Block	exp	102	20141103.120529	diff	60	diff	1	4826
nb	336	24	M	PSYC4802-20144	1.0.1	Block	exp	103	20141103.120536	diff	20	diff	1	4906
nb	336	24	M	PSYC4802-20144	1.0.1	Block	exp	104	20141103.120545	same	20	same	1	2456
nb	336	24	M	PSYC4802-20144	1.0.1	Block	exp	105	20141103.120550	same	60	same	1	2462
nb	336	24	M	PSYC4802-20144	1.0.1	Block	exp	106	20141103.120554	same	20	same	1	2506
nb	336	24	M	PSYC4802-20144	1.0.1	Block	exp	107	20141103.120559	diff	20	same	0	4881
nb	336	24	M	PSYC4802-20144	1.0.1	Block	exp	108	20141103.120606	diff	20	diff	1	4916
nb	336	24	M	PSYC4802-20144	1.0.1	Block	exp	109	20141103.120613	same	100	same	1	7001
nb	336	24	M	PSYC4802-20144	1.0.1	Block	exp	110	20141103.120622	diff	20	diff	1	7971
nb	336	24	M	PSYC4802-20144	1.0.1	Block	exp	111	20141103.120632	diff	100	same	0	2881
nb	336	24	M	PSYC4802-20144	1.0.1	Block	exp	112	20141103.120637	same	100	same	1	9461
nb	336	24	M	PSYC4802-20144	1.0.1	Block	exp	113	20141103.120648	diff	60	same	0	4141
nb	336	24	M	PSYC4802-20144	1.0.1	Block	exp	114	20141103.120654	same	20	diff	0	11666
nb	336	24	M	PSYC4802-20144	1.0.1	Block	exp	115	20141103.120708	same	100	same	1	4252
nb	336	24	M	PSYC4802-20144	1.0.1	Block	exp	116	20141103.120714	diff	100	diff	1	5902
nb	336	24	M	PSYC4802-20144	1.0.1	Block	exp	117	20141103.120722	diff	60	diff	1	8031
nb	336	24	M	PSYC4802-20144	1.0.1	Block	exp	118	20141103.120732	same	100	same	1	7377
nb	336	24	M	PSYC4802-20144	1.0.1	Block	exp	119	20141103.120742	diff	100	diff	1	8862
nb	336	24	M	PSYC4802-20144	1.0.1	Block	exp	120	20141103.120753	same	100	same	1	8582
nb	336	24	M	PSYC4802-20144	1.0.1	Block	exp	121	20141103.120803	same	20	same	1	4142
nb	336	24	M	PSYC4802-20144	1.0.1	Block	exp	122	20141103.120809	diff	20	same	0	10252
nb	336	24	M	PSYC4802-20144	1.0.1	Block	exp	123	20141103.120822	diff	100	diff	1	4582
nb	336	24	M	PSYC4802-20144	1.0.1	Block	exp	124	20141103.120828	diff	100	diff	1	8126
nb	336	24	M	PSYC4802-20144	1.0.1	Block	exp	125	20141103.120839	diff	60	diff	1	8027
nb	336	24	M	PSYC4802-20144	1.0.1	Block	exp	126	20141103.120849	diff	60	diff	1	4716
nb	336	24	M	PSYC4802-20144	1.0.1	Block	exp	127	20141103.120855	same	100	diff	0	4896
nb	336	24	M	PSYC4802-20144	1.0.1	Block	exp	128	20141103.120902	diff	100	same	0	11677
nb	336	24	M	PSYC4802-20144	1.0.1	Block	exp	129	20141103.120916	diff	20	diff	1	9076
nb	336	24	M	PSYC4802-20144	1.0.1	Block	exp	130	20141103.120927	diff	60	same	0	3571
nb	336	24	M	PSYC4802-20144	1.0.1	Block	exp	131	20141103.120933	same	60	diff	0	4446
nb	336	24	M	PSYC4802-20144	1.0.1	Block	exp	132	20141103.120939	diff	20	diff	1	11567
nb	336	24	M	PSYC4802-20144	1.0.1	Block	exp	133	20141103.120953	diff	60	diff	1	4051
nb	336	24	M	PSYC4802-20144	1.0.1	Block	exp	134	20141103.120959	diff	60	diff	1	11636
nb	336	24	M	PSYC4802-20144	1.0.1	Block	exp	135	20141103.121013	diff	100	same	0	3746
nb	336	24	M	PSYC4802-20144	1.0.1	Block	exp	136	20141103.121018	diff	20	diff	1	8362
nb	336	24	M	PSYC4802-20144	1.0.1	Block	exp	137	20141103.121029	same	100	same	1	4442
nb	336	24	M	PSYC4802-20144	1.0.1	Block	exp	138	20141103.121035	same	20	same	1	4691
nb	336	24	M	PSYC4802-20144	1.0.1	Block	exp	139	20141103.121042	diff	60	diff	1	11296
nb	336	24	M	PSYC4802-20144	1.0.1	Block	exp	140	20141103.121055	diff	20	diff	1	5666
nb	336	24	M	PSYC4802-20144	1.0.1	Block	exp	141	20141103.121103	same	60	same	1	6282
nb	336	24	M	PSYC4802-20144	1.0.1	Block	exp	142	20141103.121111	same	60	diff	0	3051
nb	336	24	M	PSYC4802-20144	1.0.1	Block	exp	143	20141103.121117	diff	20	same	0	4901
nb	336	24	M	PSYC4802-20144	1.0.1	Block	exp	144	20141103.121123	same	60	same	1	4911
nb	336	24	M	PSYC4802-20144	1.0.1	Block	exp	145	20141103.121130	diff	100	diff	1	3791
nb	336	24	M	PSYC4802-20144	1.0.1	Block	exp	146	20141103.121136	same	20	same	1	2826
nb	336	24	M	PSYC4802-20144	1.0.1	Block	exp	147	20141103.121141	diff	100	same	0	8282
nb	336	24	M	PSYC4802-20144	1.0.1	Block	exp	148	20141103.121151	same	60	same	1	4531
nb	336	24	M	PSYC4802-20144	1.0.1	Block	exp	149	20141103.121158	diff	60	diff	1	3831
nb	336	24	M	PSYC4802-20144	1.0.1	Block	exp	150	20141103.121204	diff	60	same	0	4746
