Experimenter	Subject	Age	Sex	Experiment	Version	Block	TrialType	Trial	Timestamp	SameDiff	Rotation	Response	Acc	RT
KLP	98	19	M	PSYC4802-20142	1.0	Block	practice	1	20140430.104808	same	60	diff	0	3212
KLP	98	19	M	PSYC4802-20142	1.0	Block	practice	2	20140430.104814	same	20	same	1	14989
KLP	98	19	M	PSYC4802-20142	1.0	Block	practice	3	20140430.104831	diff	20	diff	1	2116
KLP	98	19	M	PSYC4802-20142	1.0	Block	practice	4	20140430.104836	diff	20	diff	1	1688
KLP	98	19	M	PSYC4802-20142	1.0	Block	practice	5	20140430.104839	diff	20	diff	1	3657
KLP	98	19	M	PSYC4802-20142	1.0	Block	practice	6	20140430.104845	same	100	diff	0	3135
KLP	98	19	M	PSYC4802-20142	1.0	Block	practice	7	20140430.104850	same	100	same	1	5960
KLP	98	19	M	PSYC4802-20142	1.0	Block	practice	8	20140430.104858	diff	100	same	0	828
KLP	98	19	M	PSYC4802-20142	1.0	Block	practice	9	20140430.104901	diff	60	diff	1	1542
KLP	98	19	M	PSYC4802-20142	1.0	Block	practice	10	20140430.104905	same	100	same	1	1688
KLP	98	19	M	PSYC4802-20142	1.0	Block	practice	11	20140430.104909	same	20	diff	0	2286
KLP	98	19	M	PSYC4802-20142	1.0	Block	practice	12	20140430.104913	same	100	same	1	2234
KLP	98	19	M	PSYC4802-20142	1.0	Block	practice	13	20140430.104917	diff	100	same	0	1800
KLP	98	19	M	PSYC4802-20142	1.0	Block	practice	14	20140430.104921	diff	60	diff	1	1694
KLP	98	19	M	PSYC4802-20142	1.0	Block	practice	15	20140430.104925	same	100	same	1	1554
KLP	98	19	M	PSYC4802-20142	1.0	Block	practice	16	20140430.104928	same	60	diff	0	1519
KLP	98	19	M	PSYC4802-20142	1.0	Block	practice	17	20140430.104932	diff	100	diff	1	5667
KLP	98	19	M	PSYC4802-20142	1.0	Block	practice	18	20140430.104940	same	20	diff	0	4009
KLP	98	19	M	PSYC4802-20142	1.0	Block	practice	19	20140430.104946	same	20	same	1	5128
KLP	98	19	M	PSYC4802-20142	1.0	Block	practice	20	20140430.104953	diff	60	diff	1	2052
KLP	98	19	M	PSYC4802-20142	1.0	Block	practice	21	20140430.104957	diff	100	diff	1	1542
KLP	98	19	M	PSYC4802-20142	1.0	Block	practice	22	20140430.105000	diff	20	diff	1	2948
KLP	98	19	M	PSYC4802-20142	1.0	Block	practice	23	20140430.105005	diff	100	diff	1	2427
KLP	98	19	M	PSYC4802-20142	1.0	Block	practice	24	20140430.105010	diff	60	diff	1	4677
KLP	98	19	M	PSYC4802-20142	1.0	Block	practice	25	20140430.105017	same	60	same	1	7279
KLP	98	19	M	PSYC4802-20142	1.0	Block	practice	26	20140430.105026	same	20	diff	0	1560
KLP	98	19	M	PSYC4802-20142	1.0	Block	practice	27	20140430.105029	diff	60	same	0	2661
KLP	98	19	M	PSYC4802-20142	1.0	Block	practice	28	20140430.105034	diff	20	diff	1	7203
KLP	98	19	M	PSYC4802-20142	1.0	Block	practice	29	20140430.105043	same	60	same	1	11274
KLP	98	19	M	PSYC4802-20142	1.0	Block	practice	30	20140430.105057	same	60	diff	0	3100
KLP	98	19	M	PSYC4802-20142	1.0	Block	exp	31	20140430.105102	same	20	same	1	4032
KLP	98	19	M	PSYC4802-20142	1.0	Block	exp	32	20140430.105108	diff	20	diff	1	2966
KLP	98	19	M	PSYC4802-20142	1.0	Block	exp	33	20140430.105113	same	60	same	1	3546
KLP	98	19	M	PSYC4802-20142	1.0	Block	exp	34	20140430.105119	diff	100	diff	1	3705
KLP	98	19	M	PSYC4802-20142	1.0	Block	exp	35	20140430.105124	same	20	same	1	2052
KLP	98	19	M	PSYC4802-20142	1.0	Block	exp	36	20140430.105128	same	100	diff	0	6312
KLP	98	19	M	PSYC4802-20142	1.0	Block	exp	37	20140430.105137	same	20	same	1	2368
KLP	98	19	M	PSYC4802-20142	1.0	Block	exp	38	20140430.105141	diff	60	diff	1	4261
KLP	98	19	M	PSYC4802-20142	1.0	Block	exp	39	20140430.105148	same	100	same	1	4999
KLP	98	19	M	PSYC4802-20142	1.0	Block	exp	40	20140430.105155	same	60	same	1	11632
KLP	98	19	M	PSYC4802-20142	1.0	Block	exp	41	20140430.105208	same	100	same	1	8502
KLP	98	19	M	PSYC4802-20142	1.0	Block	exp	42	20140430.105219	diff	20	diff	1	9106
KLP	98	19	M	PSYC4802-20142	1.0	Block	exp	43	20140430.105230	diff	20	diff	1	2901
KLP	98	19	M	PSYC4802-20142	1.0	Block	exp	44	20140430.105235	diff	60	same	0	4764
KLP	98	19	M	PSYC4802-20142	1.0	Block	exp	45	20140430.105242	same	20	same	1	4255
KLP	98	19	M	PSYC4802-20142	1.0	Block	exp	46	20140430.105248	same	60	same	1	4038
KLP	98	19	M	PSYC4802-20142	1.0	Block	exp	47	20140430.105254	same	20	same	1	4852
KLP	98	19	M	PSYC4802-20142	1.0	Block	exp	48	20140430.105301	diff	100	same	0	8550
KLP	98	19	M	PSYC4802-20142	1.0	Block	exp	49	20140430.105312	same	60	diff	0	10014
KLP	98	19	M	PSYC4802-20142	1.0	Block	exp	50	20140430.105324	same	100	diff	0	14268
KLP	98	19	M	PSYC4802-20142	1.0	Block	exp	51	20140430.105356	same	20	same	1	3411
KLP	98	19	M	PSYC4802-20142	1.0	Block	exp	52	20140430.105402	diff	100	same	0	4846
KLP	98	19	M	PSYC4802-20142	1.0	Block	exp	53	20140430.105409	same	100	diff	0	3604
KLP	98	19	M	PSYC4802-20142	1.0	Block	exp	54	20140430.105414	same	60	same	1	2691
KLP	98	19	M	PSYC4802-20142	1.0	Block	exp	55	20140430.105419	diff	20	diff	1	4865
KLP	98	19	M	PSYC4802-20142	1.0	Block	exp	56	20140430.105426	diff	20	diff	1	3388
KLP	98	19	M	PSYC4802-20142	1.0	Block	exp	57	20140430.105431	diff	60	diff	1	13360
KLP	98	19	M	PSYC4802-20142	1.0	Block	exp	58	20140430.105447	same	60	same	1	8573
KLP	98	19	M	PSYC4802-20142	1.0	Block	exp	59	20140430.105457	same	100	same	1	8872
KLP	98	19	M	PSYC4802-20142	1.0	Block	exp	60	20140430.105508	same	20	same	1	4348
KLP	98	19	M	PSYC4802-20142	1.0	Block	exp	61	20140430.105515	diff	20	same	0	4771
KLP	98	19	M	PSYC4802-20142	1.0	Block	exp	62	20140430.105521	same	60	same	1	10401
KLP	98	19	M	PSYC4802-20142	1.0	Block	exp	63	20140430.105534	same	20	same	1	3300
KLP	98	19	M	PSYC4802-20142	1.0	Block	exp	64	20140430.105539	same	20	same	1	5081
KLP	98	19	M	PSYC4802-20142	1.0	Block	exp	65	20140430.105546	diff	20	diff	1	3880
KLP	98	19	M	PSYC4802-20142	1.0	Block	exp	66	20140430.105552	diff	100	same	0	4947
KLP	98	19	M	PSYC4802-20142	1.0	Block	exp	67	20140430.105559	diff	100	diff	1	7882
KLP	98	19	M	PSYC4802-20142	1.0	Block	exp	68	20140430.105609	same	100	same	1	8784
KLP	98	19	M	PSYC4802-20142	1.0	Block	exp	69	20140430.105620	diff	100	same	0	7308
KLP	98	19	M	PSYC4802-20142	1.0	Block	exp	70	20140430.105629	same	60	same	1	7459
KLP	98	19	M	PSYC4802-20142	1.0	Block	exp	71	20140430.105639	diff	20	diff	1	8099
KLP	98	19	M	PSYC4802-20142	1.0	Block	exp	72	20140430.105649	same	100	same	1	5631
KLP	98	19	M	PSYC4802-20142	1.0	Block	exp	73	20140430.105657	diff	100	diff	1	4213
KLP	98	19	M	PSYC4802-20142	1.0	Block	exp	74	20140430.105703	diff	60	diff	1	10266
KLP	98	19	M	PSYC4802-20142	1.0	Block	exp	75	20140430.105715	diff	100	diff	1	8345
KLP	98	19	M	PSYC4802-20142	1.0	Block	exp	76	20140430.105726	same	60	same	1	10237
KLP	98	19	M	PSYC4802-20142	1.0	Block	exp	77	20140430.105738	diff	60	diff	1	9270
KLP	98	19	M	PSYC4802-20142	1.0	Block	exp	78	20140430.105749	same	60	same	1	6721
KLP	98	19	M	PSYC4802-20142	1.0	Block	exp	79	20140430.105758	same	60	same	1	3148
KLP	98	19	M	PSYC4802-20142	1.0	Block	exp	80	20140430.105803	diff	100	same	0	5251
KLP	98	19	M	PSYC4802-20142	1.0	Block	exp	81	20140430.105811	diff	60	diff	1	3575
KLP	98	19	M	PSYC4802-20142	1.0	Block	exp	82	20140430.105816	same	60	diff	0	3921
KLP	98	19	M	PSYC4802-20142	1.0	Block	exp	83	20140430.105822	diff	20	diff	1	3675
KLP	98	19	M	PSYC4802-20142	1.0	Block	exp	84	20140430.105828	diff	60	same	0	5263
KLP	98	19	M	PSYC4802-20142	1.0	Block	exp	85	20140430.105835	same	20	same	1	7097
KLP	98	19	M	PSYC4802-20142	1.0	Block	exp	86	20140430.105844	diff	60	diff	1	6241
KLP	98	19	M	PSYC4802-20142	1.0	Block	exp	87	20140430.105852	diff	100	same	0	13424
KLP	98	19	M	PSYC4802-20142	1.0	Block	exp	88	20140430.105908	same	60	same	1	10401
KLP	98	19	M	PSYC4802-20142	1.0	Block	exp	89	20140430.105920	diff	60	same	0	4519
KLP	98	19	M	PSYC4802-20142	1.0	Block	exp	90	20140430.105927	same	20	same	1	5239
KLP	98	19	M	PSYC4802-20142	1.0	Block	exp	91	20140430.105934	diff	100	same	0	3095
KLP	98	19	M	PSYC4802-20142	1.0	Block	exp	92	20140430.105939	diff	60	diff	1	3721
KLP	98	19	M	PSYC4802-20142	1.0	Block	exp	93	20140430.105945	diff	60	diff	1	2638
KLP	98	19	M	PSYC4802-20142	1.0	Block	exp	94	20140430.105950	same	20	same	1	4518
KLP	98	19	M	PSYC4802-20142	1.0	Block	exp	95	20140430.105956	diff	100	same	0	6405
KLP	98	19	M	PSYC4802-20142	1.0	Block	exp	96	20140430.110005	same	60	same	1	7302
KLP	98	19	M	PSYC4802-20142	1.0	Block	exp	97	20140430.110014	diff	20	same	0	6728
KLP	98	19	M	PSYC4802-20142	1.0	Block	exp	98	20140430.110023	diff	100	diff	1	7378
KLP	98	19	M	PSYC4802-20142	1.0	Block	exp	99	20140430.110032	diff	60	same	0	5087
KLP	98	19	M	PSYC4802-20142	1.0	Block	exp	100	20140430.110039	diff	20	diff	1	3687
KLP	98	19	M	PSYC4802-20142	1.0	Block	exp	101	20140430.110049	diff	60	diff	1	4314
KLP	98	19	M	PSYC4802-20142	1.0	Block	exp	102	20140430.110055	diff	20	same	0	4671
KLP	98	19	M	PSYC4802-20142	1.0	Block	exp	103	20140430.110102	diff	20	same	0	2310
KLP	98	19	M	PSYC4802-20142	1.0	Block	exp	104	20140430.110106	same	20	same	1	3663
KLP	98	19	M	PSYC4802-20142	1.0	Block	exp	105	20140430.110112	same	20	diff	0	4994
KLP	98	19	M	PSYC4802-20142	1.0	Block	exp	106	20140430.110119	diff	60	diff	1	6909
KLP	98	19	M	PSYC4802-20142	1.0	Block	exp	107	20140430.110128	diff	100	same	0	4326
KLP	98	19	M	PSYC4802-20142	1.0	Block	exp	108	20140430.110134	diff	60	diff	1	8234
KLP	98	19	M	PSYC4802-20142	1.0	Block	exp	109	20140430.110144	same	20	same	1	7419
KLP	98	19	M	PSYC4802-20142	1.0	Block	exp	110	20140430.110154	same	100	same	1	3207
KLP	98	19	M	PSYC4802-20142	1.0	Block	exp	111	20140430.110159	diff	100	diff	1	3124
KLP	98	19	M	PSYC4802-20142	1.0	Block	exp	112	20140430.110204	same	60	same	1	3312
KLP	98	19	M	PSYC4802-20142	1.0	Block	exp	113	20140430.110210	same	100	diff	0	4413
KLP	98	19	M	PSYC4802-20142	1.0	Block	exp	114	20140430.110216	diff	100	same	0	2198
KLP	98	19	M	PSYC4802-20142	1.0	Block	exp	115	20140430.110220	same	100	same	1	5591
KLP	98	19	M	PSYC4802-20142	1.0	Block	exp	116	20140430.110228	diff	20	same	0	8105
KLP	98	19	M	PSYC4802-20142	1.0	Block	exp	117	20140430.110238	same	20	same	1	14462
KLP	98	19	M	PSYC4802-20142	1.0	Block	exp	118	20140430.110255	diff	60	same	0	13823
KLP	98	19	M	PSYC4802-20142	1.0	Block	exp	119	20140430.110311	diff	60	diff	1	12968
KLP	98	19	M	PSYC4802-20142	1.0	Block	exp	120	20140430.110326	same	60	same	1	5432
KLP	98	19	M	PSYC4802-20142	1.0	Block	exp	121	20140430.110333	same	100	diff	0	5497
KLP	98	19	M	PSYC4802-20142	1.0	Block	exp	122	20140430.110341	same	20	same	1	4829
KLP	98	19	M	PSYC4802-20142	1.0	Block	exp	123	20140430.110348	diff	20	diff	1	4296
KLP	98	19	M	PSYC4802-20142	1.0	Block	exp	124	20140430.110354	same	100	same	1	7677
KLP	98	19	M	PSYC4802-20142	1.0	Block	exp	125	20140430.110404	same	100	same	1	5884
KLP	98	19	M	PSYC4802-20142	1.0	Block	exp	126	20140430.110412	diff	60	same	0	3440
KLP	98	19	M	PSYC4802-20142	1.0	Block	exp	127	20140430.110417	same	100	same	1	6968
KLP	98	19	M	PSYC4802-20142	1.0	Block	exp	128	20140430.110426	same	100	same	1	11309
KLP	98	19	M	PSYC4802-20142	1.0	Block	exp	129	20140430.110440	same	20	same	1	8666
KLP	98	19	M	PSYC4802-20142	1.0	Block	exp	130	20140430.110450	diff	20	diff	1	8391
KLP	98	19	M	PSYC4802-20142	1.0	Block	exp	131	20140430.110501	same	100	same	1	6019
KLP	98	19	M	PSYC4802-20142	1.0	Block	exp	132	20140430.110509	same	100	diff	0	4647
KLP	98	19	M	PSYC4802-20142	1.0	Block	exp	133	20140430.110516	same	20	same	1	2638
KLP	98	19	M	PSYC4802-20142	1.0	Block	exp	134	20140430.110520	same	100	diff	0	6797
KLP	98	19	M	PSYC4802-20142	1.0	Block	exp	135	20140430.110529	diff	20	diff	1	10366
KLP	98	19	M	PSYC4802-20142	1.0	Block	exp	136	20140430.110541	diff	20	diff	1	6838
KLP	98	19	M	PSYC4802-20142	1.0	Block	exp	137	20140430.110550	diff	100	same	0	8954
KLP	98	19	M	PSYC4802-20142	1.0	Block	exp	138	20140430.110601	diff	100	same	0	4331
KLP	98	19	M	PSYC4802-20142	1.0	Block	exp	139	20140430.110608	diff	20	diff	1	8180
KLP	98	19	M	PSYC4802-20142	1.0	Block	exp	140	20140430.110618	diff	60	diff	1	4249
KLP	98	19	M	PSYC4802-20142	1.0	Block	exp	141	20140430.110624	diff	100	diff	1	3394
KLP	98	19	M	PSYC4802-20142	1.0	Block	exp	142	20140430.110629	diff	60	same	0	757
KLP	98	19	M	PSYC4802-20142	1.0	Block	exp	143	20140430.110632	diff	20	diff	1	3833
KLP	98	19	M	PSYC4802-20142	1.0	Block	exp	144	20140430.110638	same	60	diff	0	1970
KLP	98	19	M	PSYC4802-20142	1.0	Block	exp	145	20140430.110642	same	60	diff	0	2790
KLP	98	19	M	PSYC4802-20142	1.0	Block	exp	146	20140430.110647	same	100	same	1	5702
KLP	98	19	M	PSYC4802-20142	1.0	Block	exp	147	20140430.110655	same	60	diff	0	2034
KLP	98	19	M	PSYC4802-20142	1.0	Block	exp	148	20140430.110659	same	20	same	1	722
KLP	98	19	M	PSYC4802-20142	1.0	Block	exp	149	20140430.110701	same	60	same	1	2678
KLP	98	19	M	PSYC4802-20142	1.0	Block	exp	150	20140430.110706	diff	100	same	0	734
