Experimenter	Subject	Age	Sex	Experiment	Version	Block	TrialType	Trial	Timestamp	SameDiff	Rotation	Response	Acc	RT
SH	270	18	m	PSYC4802-20144	1.0.1	Block	practice	1	20141022.112352	diff	20	diff	1	8776
SH	270	18	m	PSYC4802-20144	1.0.1	Block	practice	2	20141022.112403	same	60	same	1	5556
SH	270	18	m	PSYC4802-20144	1.0.1	Block	practice	3	20141022.112410	diff	100	same	0	7246
SH	270	18	m	PSYC4802-20144	1.0.1	Block	practice	4	20141022.112419	same	100	same	1	9962
SH	270	18	m	PSYC4802-20144	1.0.1	Block	practice	5	20141022.112431	same	60	same	1	8751
SH	270	18	m	PSYC4802-20144	1.0.1	Block	practice	6	20141022.112442	diff	20	diff	1	5252
SH	270	18	m	PSYC4802-20144	1.0.1	Block	practice	7	20141022.112449	diff	60	diff	1	7776
SH	270	18	m	PSYC4802-20144	1.0.1	Block	practice	8	20141022.112459	diff	60	same	0	8991
SH	270	18	m	PSYC4802-20144	1.0.1	Block	practice	9	20141022.112510	diff	20	diff	1	9836
SH	270	18	m	PSYC4802-20144	1.0.1	Block	practice	10	20141022.112522	same	100	same	1	8142
SH	270	18	m	PSYC4802-20144	1.0.1	Block	practice	11	20141022.112532	same	20	same	1	5102
SH	270	18	m	PSYC4802-20144	1.0.1	Block	practice	12	20141022.112539	same	20	same	1	4052
SH	270	18	m	PSYC4802-20144	1.0.1	Block	practice	13	20141022.112545	diff	100	diff	1	6267
SH	270	18	m	PSYC4802-20144	1.0.1	Block	practice	14	20141022.112554	diff	100	diff	1	9246
SH	270	18	m	PSYC4802-20144	1.0.1	Block	practice	15	20141022.112605	diff	60	same	0	12011
SH	270	18	m	PSYC4802-20144	1.0.1	Block	practice	16	20141022.112619	same	20	same	1	6531
SH	270	18	m	PSYC4802-20144	1.0.1	Block	practice	17	20141022.112627	same	60	same	1	4807
SH	270	18	m	PSYC4802-20144	1.0.1	Block	practice	18	20141022.112634	same	60	same	1	6351
SH	270	18	m	PSYC4802-20144	1.0.1	Block	practice	19	20141022.112642	diff	100	same	0	6502
SH	270	18	m	PSYC4802-20144	1.0.1	Block	practice	20	20141022.112651	diff	100	diff	1	11937
SH	270	18	m	PSYC4802-20144	1.0.1	Block	practice	21	20141022.112705	diff	60	same	0	9161
SH	270	18	m	PSYC4802-20144	1.0.1	Block	practice	22	20141022.112716	same	100	same	1	9191
SH	270	18	m	PSYC4802-20144	1.0.1	Block	practice	23	20141022.112727	same	100	same	1	9847
SH	270	18	m	PSYC4802-20144	1.0.1	Block	practice	24	20141022.112739	same	60	same	1	4136
SH	270	18	m	PSYC4802-20144	1.0.1	Block	practice	25	20141022.112745	diff	20	diff	1	10817
SH	270	18	m	PSYC4802-20144	1.0.1	Block	practice	26	20141022.112758	same	100	same	1	8121
SH	270	18	m	PSYC4802-20144	1.0.1	Block	practice	27	20141022.112808	diff	20	diff	1	8292
SH	270	18	m	PSYC4802-20144	1.0.1	Block	practice	28	20141022.112818	same	20	same	1	4476
SH	270	18	m	PSYC4802-20144	1.0.1	Block	practice	29	20141022.112825	diff	60	diff	1	3232
SH	270	18	m	PSYC4802-20144	1.0.1	Block	practice	30	20141022.112830	same	20	same	1	4722
SH	270	18	m	PSYC4802-20144	1.0.1	Block	exp	31	20141022.112837	diff	20	diff	1	7506
SH	270	18	m	PSYC4802-20144	1.0.1	Block	exp	32	20141022.112846	same	100	same	1	5901
SH	270	18	m	PSYC4802-20144	1.0.1	Block	exp	33	20141022.112854	diff	20	diff	1	3411
SH	270	18	m	PSYC4802-20144	1.0.1	Block	exp	34	20141022.112900	same	20	same	1	4627
SH	270	18	m	PSYC4802-20144	1.0.1	Block	exp	35	20141022.112906	same	100	same	1	13152
SH	270	18	m	PSYC4802-20144	1.0.1	Block	exp	36	20141022.112921	diff	20	diff	1	14397
SH	270	18	m	PSYC4802-20144	1.0.1	Block	exp	37	20141022.112938	diff	60	diff	1	6816
SH	270	18	m	PSYC4802-20144	1.0.1	Block	exp	38	20141022.112946	diff	60	diff	1	8227
SH	270	18	m	PSYC4802-20144	1.0.1	Block	exp	39	20141022.112957	same	100	same	1	7041
SH	270	18	m	PSYC4802-20144	1.0.1	Block	exp	40	20141022.113006	diff	60	diff	1	5066
SH	270	18	m	PSYC4802-20144	1.0.1	Block	exp	41	20141022.113013	same	100	diff	0	7041
SH	270	18	m	PSYC4802-20144	1.0.1	Block	exp	42	20141022.113022	same	60	same	1	5186
SH	270	18	m	PSYC4802-20144	1.0.1	Block	exp	43	20141022.113029	diff	20	diff	1	5942
SH	270	18	m	PSYC4802-20144	1.0.1	Block	exp	44	20141022.113037	diff	100	diff	1	6361
SH	270	18	m	PSYC4802-20144	1.0.1	Block	exp	45	20141022.113045	same	20	same	1	4387
SH	270	18	m	PSYC4802-20144	1.0.1	Block	exp	46	20141022.113052	same	100	same	1	8547
SH	270	18	m	PSYC4802-20144	1.0.1	Block	exp	47	20141022.113102	same	100	same	1	9806
SH	270	18	m	PSYC4802-20144	1.0.1	Block	exp	48	20141022.113114	diff	100	diff	1	5638
SH	270	18	m	PSYC4802-20144	1.0.1	Block	exp	49	20141022.113121	diff	60	diff	1	5151
SH	270	18	m	PSYC4802-20144	1.0.1	Block	exp	50	20141022.113129	diff	60	diff	1	5371
SH	270	18	m	PSYC4802-20144	1.0.1	Block	exp	51	20141022.113256	same	60	same	1	4611
SH	270	18	m	PSYC4802-20144	1.0.1	Block	exp	52	20141022.113302	same	60	same	1	2366
SH	270	18	m	PSYC4802-20144	1.0.1	Block	exp	53	20141022.113306	diff	100	diff	1	3116
SH	270	18	m	PSYC4802-20144	1.0.1	Block	exp	54	20141022.113311	diff	60	diff	1	2431
SH	270	18	m	PSYC4802-20144	1.0.1	Block	exp	55	20141022.113316	same	20	same	1	1871
SH	270	18	m	PSYC4802-20144	1.0.1	Block	exp	56	20141022.113320	same	60	same	1	2441
SH	270	18	m	PSYC4802-20144	1.0.1	Block	exp	57	20141022.113324	same	100	same	1	3997
SH	270	18	m	PSYC4802-20144	1.0.1	Block	exp	58	20141022.113330	same	100	same	1	3421
SH	270	18	m	PSYC4802-20144	1.0.1	Block	exp	59	20141022.113336	diff	20	same	0	4026
SH	270	18	m	PSYC4802-20144	1.0.1	Block	exp	60	20141022.113342	diff	60	diff	1	3717
SH	270	18	m	PSYC4802-20144	1.0.1	Block	exp	61	20141022.113347	diff	100	diff	1	3226
SH	270	18	m	PSYC4802-20144	1.0.1	Block	exp	62	20141022.113352	same	100	same	1	7591
SH	270	18	m	PSYC4802-20144	1.0.1	Block	exp	63	20141022.113402	diff	100	diff	1	5537
SH	270	18	m	PSYC4802-20144	1.0.1	Block	exp	64	20141022.113409	diff	100	diff	1	2862
SH	270	18	m	PSYC4802-20144	1.0.1	Block	exp	65	20141022.113414	same	60	same	1	2236
SH	270	18	m	PSYC4802-20144	1.0.1	Block	exp	66	20141022.113419	same	20	same	1	3191
SH	270	18	m	PSYC4802-20144	1.0.1	Block	exp	67	20141022.113424	diff	20	same	0	6117
SH	270	18	m	PSYC4802-20144	1.0.1	Block	exp	68	20141022.113432	diff	100	diff	1	4761
SH	270	18	m	PSYC4802-20144	1.0.1	Block	exp	69	20141022.113439	diff	20	diff	1	4432
SH	270	18	m	PSYC4802-20144	1.0.1	Block	exp	70	20141022.113445	diff	20	diff	1	5967
SH	270	18	m	PSYC4802-20144	1.0.1	Block	exp	71	20141022.113453	same	60	same	1	5922
SH	270	18	m	PSYC4802-20144	1.0.1	Block	exp	72	20141022.113501	diff	100	diff	1	4861
SH	270	18	m	PSYC4802-20144	1.0.1	Block	exp	73	20141022.113508	same	20	same	1	5691
SH	270	18	m	PSYC4802-20144	1.0.1	Block	exp	74	20141022.113515	same	100	same	1	3521
SH	270	18	m	PSYC4802-20144	1.0.1	Block	exp	75	20141022.113521	diff	100	diff	1	6156
SH	270	18	m	PSYC4802-20144	1.0.1	Block	exp	76	20141022.113529	diff	100	same	0	5856
SH	270	18	m	PSYC4802-20144	1.0.1	Block	exp	77	20141022.113537	diff	100	diff	1	4206
SH	270	18	m	PSYC4802-20144	1.0.1	Block	exp	78	20141022.113543	diff	100	diff	1	5418
SH	270	18	m	PSYC4802-20144	1.0.1	Block	exp	79	20141022.113550	same	20	same	1	3726
SH	270	18	m	PSYC4802-20144	1.0.1	Block	exp	80	20141022.113556	diff	60	diff	1	3312
SH	270	18	m	PSYC4802-20144	1.0.1	Block	exp	81	20141022.113601	same	60	same	1	4001
SH	270	18	m	PSYC4802-20144	1.0.1	Block	exp	82	20141022.113607	same	60	same	1	2312
SH	270	18	m	PSYC4802-20144	1.0.1	Block	exp	83	20141022.113612	same	60	same	1	3116
SH	270	18	m	PSYC4802-20144	1.0.1	Block	exp	84	20141022.113617	diff	60	diff	1	2486
SH	270	18	m	PSYC4802-20144	1.0.1	Block	exp	85	20141022.113621	same	60	same	1	4187
SH	270	18	m	PSYC4802-20144	1.0.1	Block	exp	86	20141022.113627	same	20	same	1	1796
SH	270	18	m	PSYC4802-20144	1.0.1	Block	exp	87	20141022.113631	same	20	same	1	1871
SH	270	18	m	PSYC4802-20144	1.0.1	Block	exp	88	20141022.113635	same	60	same	1	5202
SH	270	18	m	PSYC4802-20144	1.0.1	Block	exp	89	20141022.113642	same	20	same	1	3166
SH	270	18	m	PSYC4802-20144	1.0.1	Block	exp	90	20141022.113647	same	100	diff	0	1406
SH	270	18	m	PSYC4802-20144	1.0.1	Block	exp	91	20141022.113651	same	60	same	1	4186
SH	270	18	m	PSYC4802-20144	1.0.1	Block	exp	92	20141022.113657	same	20	same	1	2816
SH	270	18	m	PSYC4802-20144	1.0.1	Block	exp	93	20141022.113702	same	60	diff	0	1591
SH	270	18	m	PSYC4802-20144	1.0.1	Block	exp	94	20141022.113705	same	20	same	1	2476
SH	270	18	m	PSYC4802-20144	1.0.1	Block	exp	95	20141022.113710	diff	60	same	0	5152
SH	270	18	m	PSYC4802-20144	1.0.1	Block	exp	96	20141022.113717	same	60	same	1	7521
SH	270	18	m	PSYC4802-20144	1.0.1	Block	exp	97	20141022.113726	diff	100	diff	1	3341
SH	270	18	m	PSYC4802-20144	1.0.1	Block	exp	98	20141022.113732	same	100	same	1	5237
SH	270	18	m	PSYC4802-20144	1.0.1	Block	exp	99	20141022.113739	same	20	same	1	4207
SH	270	18	m	PSYC4802-20144	1.0.1	Block	exp	100	20141022.113745	diff	60	diff	1	2781
SH	270	18	m	PSYC4802-20144	1.0.1	Block	exp	101	20141022.113826	diff	60	diff	1	3017
SH	270	18	m	PSYC4802-20144	1.0.1	Block	exp	102	20141022.113831	diff	20	diff	1	2722
SH	270	18	m	PSYC4802-20144	1.0.1	Block	exp	103	20141022.113836	same	60	same	1	4661
SH	270	18	m	PSYC4802-20144	1.0.1	Block	exp	104	20141022.113843	diff	100	diff	1	1776
SH	270	18	m	PSYC4802-20144	1.0.1	Block	exp	105	20141022.113846	diff	20	diff	1	4347
SH	270	18	m	PSYC4802-20144	1.0.1	Block	exp	106	20141022.113853	same	60	same	1	3396
SH	270	18	m	PSYC4802-20144	1.0.1	Block	exp	107	20141022.113858	diff	60	diff	1	5377
SH	270	18	m	PSYC4802-20144	1.0.1	Block	exp	108	20141022.113905	same	20	same	1	2346
SH	270	18	m	PSYC4802-20144	1.0.1	Block	exp	109	20141022.113910	same	100	same	1	4286
SH	270	18	m	PSYC4802-20144	1.0.1	Block	exp	110	20141022.113916	diff	100	diff	1	4447
SH	270	18	m	PSYC4802-20144	1.0.1	Block	exp	111	20141022.113922	same	100	diff	0	5067
SH	270	18	m	PSYC4802-20144	1.0.1	Block	exp	112	20141022.113929	same	20	same	1	2401
SH	270	18	m	PSYC4802-20144	1.0.1	Block	exp	113	20141022.113934	same	20	same	1	2521
SH	270	18	m	PSYC4802-20144	1.0.1	Block	exp	114	20141022.113938	diff	60	diff	1	2687
SH	270	18	m	PSYC4802-20144	1.0.1	Block	exp	115	20141022.113943	diff	60	diff	1	1716
SH	270	18	m	PSYC4802-20144	1.0.1	Block	exp	116	20141022.113947	same	100	same	1	4682
SH	270	18	m	PSYC4802-20144	1.0.1	Block	exp	117	20141022.113953	diff	20	diff	1	6671
SH	270	18	m	PSYC4802-20144	1.0.1	Block	exp	118	20141022.114002	same	100	same	1	6662
SH	270	18	m	PSYC4802-20144	1.0.1	Block	exp	119	20141022.114011	diff	20	diff	1	1541
SH	270	18	m	PSYC4802-20144	1.0.1	Block	exp	120	20141022.114014	same	60	diff	0	3796
SH	270	18	m	PSYC4802-20144	1.0.1	Block	exp	121	20141022.114020	diff	20	diff	1	7481
SH	270	18	m	PSYC4802-20144	1.0.1	Block	exp	122	20141022.114029	same	20	same	1	2966
SH	270	18	m	PSYC4802-20144	1.0.1	Block	exp	123	20141022.114034	diff	100	same	0	3106
SH	270	18	m	PSYC4802-20144	1.0.1	Block	exp	124	20141022.114040	diff	60	diff	1	7876
SH	270	18	m	PSYC4802-20144	1.0.1	Block	exp	125	20141022.114049	diff	20	diff	1	5556
SH	270	18	m	PSYC4802-20144	1.0.1	Block	exp	126	20141022.114057	diff	20	diff	1	3811
SH	270	18	m	PSYC4802-20144	1.0.1	Block	exp	127	20141022.114103	same	20	same	1	3586
SH	270	18	m	PSYC4802-20144	1.0.1	Block	exp	128	20141022.114108	diff	60	diff	1	3872
SH	270	18	m	PSYC4802-20144	1.0.1	Block	exp	129	20141022.114114	diff	100	diff	1	3692
SH	270	18	m	PSYC4802-20144	1.0.1	Block	exp	130	20141022.114120	diff	60	diff	1	5127
SH	270	18	m	PSYC4802-20144	1.0.1	Block	exp	131	20141022.114127	diff	20	diff	1	3941
SH	270	18	m	PSYC4802-20144	1.0.1	Block	exp	132	20141022.114133	diff	20	diff	1	3616
SH	270	18	m	PSYC4802-20144	1.0.1	Block	exp	133	20141022.114138	diff	20	diff	1	8501
SH	270	18	m	PSYC4802-20144	1.0.1	Block	exp	134	20141022.114149	same	60	same	1	3361
SH	270	18	m	PSYC4802-20144	1.0.1	Block	exp	135	20141022.114154	diff	60	diff	1	1826
SH	270	18	m	PSYC4802-20144	1.0.1	Block	exp	136	20141022.114158	same	20	same	1	1801
SH	270	18	m	PSYC4802-20144	1.0.1	Block	exp	137	20141022.114202	same	60	same	1	4077
SH	270	18	m	PSYC4802-20144	1.0.1	Block	exp	138	20141022.114208	diff	100	diff	1	4092
SH	270	18	m	PSYC4802-20144	1.0.1	Block	exp	139	20141022.114214	diff	20	diff	1	3701
SH	270	18	m	PSYC4802-20144	1.0.1	Block	exp	140	20141022.114220	diff	100	diff	1	3096
SH	270	18	m	PSYC4802-20144	1.0.1	Block	exp	141	20141022.114225	same	20	same	1	2221
SH	270	18	m	PSYC4802-20144	1.0.1	Block	exp	142	20141022.114229	same	60	same	1	3101
SH	270	18	m	PSYC4802-20144	1.0.1	Block	exp	143	20141022.114234	same	100	same	1	4041
SH	270	18	m	PSYC4802-20144	1.0.1	Block	exp	144	20141022.114240	diff	60	diff	1	4376
SH	270	18	m	PSYC4802-20144	1.0.1	Block	exp	145	20141022.114246	diff	20	diff	1	2637
SH	270	18	m	PSYC4802-20144	1.0.1	Block	exp	146	20141022.114251	same	100	same	1	5717
SH	270	18	m	PSYC4802-20144	1.0.1	Block	exp	147	20141022.114259	same	100	same	1	5692
SH	270	18	m	PSYC4802-20144	1.0.1	Block	exp	148	20141022.114306	same	20	same	1	2897
SH	270	18	m	PSYC4802-20144	1.0.1	Block	exp	149	20141022.114311	diff	100	diff	1	2136
SH	270	18	m	PSYC4802-20144	1.0.1	Block	exp	150	20141022.114315	same	100	same	1	4021
