Experimenter	Subject	Age	Sex	Experiment	Version	Block	TrialType	Trial	Timestamp	SameDiff	Rotation	Response	Acc	RT
KLP	87	20	F	PSYC4802-20142	1.0	Block	practice	1	20140428.111526	diff	20	same	0	23674
KLP	87	20	F	PSYC4802-20142	1.0	Block	practice	2	20140428.111553	diff	100	same	0	6511
KLP	87	20	F	PSYC4802-20142	1.0	Block	practice	3	20140428.111601	same	100	diff	0	12188
KLP	87	20	F	PSYC4802-20142	1.0	Block	practice	4	20140428.111616	diff	100	same	0	27258
KLP	87	20	F	PSYC4802-20142	1.0	Block	practice	5	20140428.111645	same	100	diff	0	4982
KLP	87	20	F	PSYC4802-20142	1.0	Block	practice	6	20140428.111652	same	60	same	1	10495
KLP	87	20	F	PSYC4802-20142	1.0	Block	practice	7	20140428.111705	diff	60	same	0	11104
KLP	87	20	F	PSYC4802-20142	1.0	Block	practice	8	20140428.111718	diff	60	diff	1	8485
KLP	87	20	F	PSYC4802-20142	1.0	Block	practice	9	20140428.111728	same	60	same	1	10284
KLP	87	20	F	PSYC4802-20142	1.0	Block	practice	10	20140428.111740	same	60	same	1	7519
KLP	87	20	F	PSYC4802-20142	1.0	Block	practice	11	20140428.111750	same	100	same	1	31489
KLP	87	20	F	PSYC4802-20142	1.0	Block	practice	12	20140428.111823	same	100	same	1	33235
KLP	87	20	F	PSYC4802-20142	1.0	Block	practice	13	20140428.111859	same	20	same	1	5034
KLP	87	20	F	PSYC4802-20142	1.0	Block	practice	14	20140428.111906	diff	60	diff	1	18821
KLP	87	20	F	PSYC4802-20142	1.0	Block	practice	15	20140428.111927	diff	20	diff	1	21106
KLP	87	20	F	PSYC4802-20142	1.0	Block	practice	16	20140428.111950	diff	100	diff	1	6071
KLP	87	20	F	PSYC4802-20142	1.0	Block	practice	17	20140428.111958	same	20	same	1	6951
KLP	87	20	F	PSYC4802-20142	1.0	Block	practice	18	20140428.112007	same	20	same	1	6476
KLP	87	20	F	PSYC4802-20142	1.0	Block	practice	19	20140428.112015	same	60	same	1	15399
KLP	87	20	F	PSYC4802-20142	1.0	Block	practice	20	20140428.112033	same	100	same	1	10952
KLP	87	20	F	PSYC4802-20142	1.0	Block	practice	21	20140428.112046	diff	100	diff	1	20813
KLP	87	20	F	PSYC4802-20142	1.0	Block	practice	22	20140428.112108	diff	20	diff	1	12710
KLP	87	20	F	PSYC4802-20142	1.0	Block	practice	23	20140428.112123	diff	20	diff	1	22871
KLP	87	20	F	PSYC4802-20142	1.0	Block	practice	24	20140428.112148	same	60	same	1	4390
KLP	87	20	F	PSYC4802-20142	1.0	Block	practice	25	20140428.112154	same	20	same	1	4747
KLP	87	20	F	PSYC4802-20142	1.0	Block	practice	26	20140428.112201	diff	60	diff	1	7085
KLP	87	20	F	PSYC4802-20142	1.0	Block	practice	27	20140428.112210	diff	20	diff	1	8679
KLP	87	20	F	PSYC4802-20142	1.0	Block	practice	28	20140428.112221	same	20	same	1	5386
KLP	87	20	F	PSYC4802-20142	1.0	Block	practice	29	20140428.112228	diff	100	diff	1	5884
KLP	87	20	F	PSYC4802-20142	1.0	Block	practice	30	20140428.112236	diff	60	diff	1	6118
KLP	87	20	F	PSYC4802-20142	1.0	Block	exp	31	20140428.112244	diff	60	diff	1	6001
KLP	87	20	F	PSYC4802-20142	1.0	Block	exp	32	20140428.112252	same	60	same	1	11731
KLP	87	20	F	PSYC4802-20142	1.0	Block	exp	33	20140428.112306	same	60	same	1	12921
KLP	87	20	F	PSYC4802-20142	1.0	Block	exp	34	20140428.112321	diff	100	diff	1	7823
KLP	87	20	F	PSYC4802-20142	1.0	Block	exp	35	20140428.112331	same	20	same	1	4741
KLP	87	20	F	PSYC4802-20142	1.0	Block	exp	36	20140428.112338	same	20	same	1	2954
KLP	87	20	F	PSYC4802-20142	1.0	Block	exp	37	20140428.112343	same	20	same	1	4325
KLP	87	20	F	PSYC4802-20142	1.0	Block	exp	38	20140428.112349	same	100	diff	0	5099
KLP	87	20	F	PSYC4802-20142	1.0	Block	exp	39	20140428.112356	same	100	same	1	21054
KLP	87	20	F	PSYC4802-20142	1.0	Block	exp	40	20140428.112419	diff	20	diff	1	16342
KLP	87	20	F	PSYC4802-20142	1.0	Block	exp	41	20140428.112438	same	20	same	1	5656
KLP	87	20	F	PSYC4802-20142	1.0	Block	exp	42	20140428.112445	diff	60	diff	1	7776
KLP	87	20	F	PSYC4802-20142	1.0	Block	exp	43	20140428.112455	same	100	diff	0	10899
KLP	87	20	F	PSYC4802-20142	1.0	Block	exp	44	20140428.112508	same	60	same	1	9101
KLP	87	20	F	PSYC4802-20142	1.0	Block	exp	45	20140428.112519	same	20	same	1	4987
KLP	87	20	F	PSYC4802-20142	1.0	Block	exp	46	20140428.112526	diff	60	same	0	12892
KLP	87	20	F	PSYC4802-20142	1.0	Block	exp	47	20140428.112541	diff	100	diff	1	5116
KLP	87	20	F	PSYC4802-20142	1.0	Block	exp	48	20140428.112548	diff	100	diff	1	10425
KLP	87	20	F	PSYC4802-20142	1.0	Block	exp	49	20140428.112601	diff	20	same	0	11685
KLP	87	20	F	PSYC4802-20142	1.0	Block	exp	50	20140428.112614	same	100	same	1	10448
KLP	87	20	F	PSYC4802-20142	1.0	Block	exp	51	20140428.112630	same	60	same	1	8579
KLP	87	20	F	PSYC4802-20142	1.0	Block	exp	52	20140428.112641	same	60	same	1	6511
KLP	87	20	F	PSYC4802-20142	1.0	Block	exp	53	20140428.112649	same	20	same	1	5685
KLP	87	20	F	PSYC4802-20142	1.0	Block	exp	54	20140428.112657	same	20	same	1	3675
KLP	87	20	F	PSYC4802-20142	1.0	Block	exp	55	20140428.112703	diff	100	same	0	7806
KLP	87	20	F	PSYC4802-20142	1.0	Block	exp	56	20140428.112713	same	20	same	1	5626
KLP	87	20	F	PSYC4802-20142	1.0	Block	exp	57	20140428.112720	same	100	same	1	8128
KLP	87	20	F	PSYC4802-20142	1.0	Block	exp	58	20140428.112730	diff	20	same	0	10707
KLP	87	20	F	PSYC4802-20142	1.0	Block	exp	59	20140428.112743	diff	20	diff	1	9921
KLP	87	20	F	PSYC4802-20142	1.0	Block	exp	60	20140428.112755	diff	100	diff	1	7507
KLP	87	20	F	PSYC4802-20142	1.0	Block	exp	61	20140428.112805	same	60	same	1	5620
KLP	87	20	F	PSYC4802-20142	1.0	Block	exp	62	20140428.112812	diff	60	diff	1	9557
KLP	87	20	F	PSYC4802-20142	1.0	Block	exp	63	20140428.112824	diff	20	diff	1	10571
KLP	87	20	F	PSYC4802-20142	1.0	Block	exp	64	20140428.112837	diff	100	diff	1	8919
KLP	87	20	F	PSYC4802-20142	1.0	Block	exp	65	20140428.112848	same	20	same	1	5573
KLP	87	20	F	PSYC4802-20142	1.0	Block	exp	66	20140428.112855	same	100	same	1	16653
KLP	87	20	F	PSYC4802-20142	1.0	Block	exp	67	20140428.112914	same	60	same	1	12570
KLP	87	20	F	PSYC4802-20142	1.0	Block	exp	68	20140428.112929	same	20	same	1	7741
KLP	87	20	F	PSYC4802-20142	1.0	Block	exp	69	20140428.112938	same	100	same	1	9945
KLP	87	20	F	PSYC4802-20142	1.0	Block	exp	70	20140428.112950	diff	60	diff	1	4208
KLP	87	20	F	PSYC4802-20142	1.0	Block	exp	71	20140428.112957	diff	20	diff	1	9217
KLP	87	20	F	PSYC4802-20142	1.0	Block	exp	72	20140428.113008	diff	60	diff	1	12118
KLP	87	20	F	PSYC4802-20142	1.0	Block	exp	73	20140428.113022	diff	100	diff	1	11122
KLP	87	20	F	PSYC4802-20142	1.0	Block	exp	74	20140428.113035	diff	60	diff	1	12452
KLP	87	20	F	PSYC4802-20142	1.0	Block	exp	75	20140428.113050	diff	20	diff	1	5041
KLP	87	20	F	PSYC4802-20142	1.0	Block	exp	76	20140428.113057	same	100	diff	0	5643
KLP	87	20	F	PSYC4802-20142	1.0	Block	exp	77	20140428.113104	same	20	same	1	3306
KLP	87	20	F	PSYC4802-20142	1.0	Block	exp	78	20140428.113110	diff	100	diff	1	4835
KLP	87	20	F	PSYC4802-20142	1.0	Block	exp	79	20140428.113117	diff	20	diff	1	9863
KLP	87	20	F	PSYC4802-20142	1.0	Block	exp	80	20140428.113129	same	100	diff	0	8315
KLP	87	20	F	PSYC4802-20142	1.0	Block	exp	81	20140428.113139	diff	100	diff	1	12563
KLP	87	20	F	PSYC4802-20142	1.0	Block	exp	82	20140428.113154	diff	20	diff	1	9001
KLP	87	20	F	PSYC4802-20142	1.0	Block	exp	83	20140428.113205	diff	100	diff	1	7103
KLP	87	20	F	PSYC4802-20142	1.0	Block	exp	84	20140428.113214	same	20	same	1	4583
KLP	87	20	F	PSYC4802-20142	1.0	Block	exp	85	20140428.113220	diff	100	diff	1	6212
KLP	87	20	F	PSYC4802-20142	1.0	Block	exp	86	20140428.113229	same	100	same	1	6810
KLP	87	20	F	PSYC4802-20142	1.0	Block	exp	87	20140428.113238	same	60	same	1	4923
KLP	87	20	F	PSYC4802-20142	1.0	Block	exp	88	20140428.113245	same	100	diff	0	15803
KLP	87	20	F	PSYC4802-20142	1.0	Block	exp	89	20140428.113303	diff	60	diff	1	6464
KLP	87	20	F	PSYC4802-20142	1.0	Block	exp	90	20140428.113311	same	100	diff	0	3704
KLP	87	20	F	PSYC4802-20142	1.0	Block	exp	91	20140428.113317	same	100	diff	0	9405
KLP	87	20	F	PSYC4802-20142	1.0	Block	exp	92	20140428.113328	same	60	same	1	4080
KLP	87	20	F	PSYC4802-20142	1.0	Block	exp	93	20140428.113334	diff	100	diff	1	10501
KLP	87	20	F	PSYC4802-20142	1.0	Block	exp	94	20140428.113347	same	60	diff	0	5661
KLP	87	20	F	PSYC4802-20142	1.0	Block	exp	95	20140428.113355	same	20	same	1	3541
KLP	87	20	F	PSYC4802-20142	1.0	Block	exp	96	20140428.113400	diff	20	diff	1	17187
KLP	87	20	F	PSYC4802-20142	1.0	Block	exp	97	20140428.113419	diff	60	diff	1	17444
KLP	87	20	F	PSYC4802-20142	1.0	Block	exp	98	20140428.113439	diff	60	diff	1	11731
KLP	87	20	F	PSYC4802-20142	1.0	Block	exp	99	20140428.113453	diff	60	same	0	12277
KLP	87	20	F	PSYC4802-20142	1.0	Block	exp	100	20140428.113507	same	60	same	1	6393
KLP	87	20	F	PSYC4802-20142	1.0	Block	exp	101	20140428.113518	same	60	same	1	5831
KLP	87	20	F	PSYC4802-20142	1.0	Block	exp	102	20140428.113526	diff	60	diff	1	4765
KLP	87	20	F	PSYC4802-20142	1.0	Block	exp	103	20140428.113533	diff	20	diff	1	5104
KLP	87	20	F	PSYC4802-20142	1.0	Block	exp	104	20140428.113540	same	60	same	1	5023
KLP	87	20	F	PSYC4802-20142	1.0	Block	exp	105	20140428.113547	diff	60	diff	1	4243
KLP	87	20	F	PSYC4802-20142	1.0	Block	exp	106	20140428.113553	same	60	same	1	4695
KLP	87	20	F	PSYC4802-20142	1.0	Block	exp	107	20140428.113600	same	100	same	1	9083
KLP	87	20	F	PSYC4802-20142	1.0	Block	exp	108	20140428.113611	diff	100	diff	1	8731
KLP	87	20	F	PSYC4802-20142	1.0	Block	exp	109	20140428.113622	same	20	same	1	3405
KLP	87	20	F	PSYC4802-20142	1.0	Block	exp	110	20140428.113627	diff	60	diff	1	3218
KLP	87	20	F	PSYC4802-20142	1.0	Block	exp	111	20140428.113632	diff	20	diff	1	5198
KLP	87	20	F	PSYC4802-20142	1.0	Block	exp	112	20140428.113639	diff	60	diff	1	4788
KLP	87	20	F	PSYC4802-20142	1.0	Block	exp	113	20140428.113646	diff	20	diff	1	4079
KLP	87	20	F	PSYC4802-20142	1.0	Block	exp	114	20140428.113652	same	20	same	1	4307
KLP	87	20	F	PSYC4802-20142	1.0	Block	exp	115	20140428.113658	same	20	same	1	4560
KLP	87	20	F	PSYC4802-20142	1.0	Block	exp	116	20140428.113705	same	20	same	1	2403
KLP	87	20	F	PSYC4802-20142	1.0	Block	exp	117	20140428.113709	diff	20	diff	1	2257
KLP	87	20	F	PSYC4802-20142	1.0	Block	exp	118	20140428.113714	diff	20	diff	1	3704
KLP	87	20	F	PSYC4802-20142	1.0	Block	exp	119	20140428.113719	same	20	same	1	2180
KLP	87	20	F	PSYC4802-20142	1.0	Block	exp	120	20140428.113724	same	100	diff	0	4947
KLP	87	20	F	PSYC4802-20142	1.0	Block	exp	121	20140428.113731	diff	100	diff	1	4905
KLP	87	20	F	PSYC4802-20142	1.0	Block	exp	122	20140428.113738	diff	60	diff	1	3945
KLP	87	20	F	PSYC4802-20142	1.0	Block	exp	123	20140428.113744	same	60	same	1	7190
KLP	87	20	F	PSYC4802-20142	1.0	Block	exp	124	20140428.113753	diff	100	diff	1	3822
KLP	87	20	F	PSYC4802-20142	1.0	Block	exp	125	20140428.113759	diff	20	diff	1	6933
KLP	87	20	F	PSYC4802-20142	1.0	Block	exp	126	20140428.113808	diff	60	diff	1	5321
KLP	87	20	F	PSYC4802-20142	1.0	Block	exp	127	20140428.113815	diff	60	same	0	5743
KLP	87	20	F	PSYC4802-20142	1.0	Block	exp	128	20140428.113823	same	60	same	1	3540
KLP	87	20	F	PSYC4802-20142	1.0	Block	exp	129	20140428.113828	diff	60	diff	1	4484
KLP	87	20	F	PSYC4802-20142	1.0	Block	exp	130	20140428.113835	diff	100	diff	1	8192
KLP	87	20	F	PSYC4802-20142	1.0	Block	exp	131	20140428.113845	same	100	diff	0	6411
KLP	87	20	F	PSYC4802-20142	1.0	Block	exp	132	20140428.113854	same	100	same	1	5890
KLP	87	20	F	PSYC4802-20142	1.0	Block	exp	133	20140428.113901	diff	60	diff	1	8040
KLP	87	20	F	PSYC4802-20142	1.0	Block	exp	134	20140428.113912	diff	20	diff	1	7677
KLP	87	20	F	PSYC4802-20142	1.0	Block	exp	135	20140428.113921	same	60	same	1	4876
KLP	87	20	F	PSYC4802-20142	1.0	Block	exp	136	20140428.113928	same	100	same	1	8895
KLP	87	20	F	PSYC4802-20142	1.0	Block	exp	137	20140428.113939	diff	20	diff	1	11461
KLP	87	20	F	PSYC4802-20142	1.0	Block	exp	138	20140428.113952	diff	100	diff	1	6335
KLP	87	20	F	PSYC4802-20142	1.0	Block	exp	139	20140428.114001	diff	100	diff	1	6933
KLP	87	20	F	PSYC4802-20142	1.0	Block	exp	140	20140428.114010	same	100	same	1	11350
KLP	87	20	F	PSYC4802-20142	1.0	Block	exp	141	20140428.114023	same	60	same	1	4343
KLP	87	20	F	PSYC4802-20142	1.0	Block	exp	142	20140428.114030	diff	100	same	0	4548
KLP	87	20	F	PSYC4802-20142	1.0	Block	exp	143	20140428.114036	same	60	same	1	4888
KLP	87	20	F	PSYC4802-20142	1.0	Block	exp	144	20140428.114043	same	100	diff	0	3745
KLP	87	20	F	PSYC4802-20142	1.0	Block	exp	145	20140428.114049	same	60	diff	0	11990
KLP	87	20	F	PSYC4802-20142	1.0	Block	exp	146	20140428.114103	diff	20	diff	1	4999
KLP	87	20	F	PSYC4802-20142	1.0	Block	exp	147	20140428.114110	same	20	same	1	3798
KLP	87	20	F	PSYC4802-20142	1.0	Block	exp	148	20140428.114116	diff	100	diff	1	4548
KLP	87	20	F	PSYC4802-20142	1.0	Block	exp	149	20140428.114122	same	20	same	1	1847
KLP	87	20	F	PSYC4802-20142	1.0	Block	exp	150	20140428.114126	diff	20	diff	1	5263
