Experimenter	Subject	Age	Sex	Experiment	Version	Block	TrialType	Trial	Timestamp	SameDiff	Rotation	Response	Acc	RT
AT	310	19	M	PSYC4802-20144	1.0.1	Block	practice	1	20141029.105446	same	100	diff	0	4691
AT	310	19	M	PSYC4802-20144	1.0.1	Block	practice	2	20141029.105453	same	60	same	1	6427
AT	310	19	M	PSYC4802-20144	1.0.1	Block	practice	3	20141029.105501	same	20	same	1	5142
AT	310	19	M	PSYC4802-20144	1.0.1	Block	practice	4	20141029.105509	diff	100	diff	1	4016
AT	310	19	M	PSYC4802-20144	1.0.1	Block	practice	5	20141029.105515	same	60	same	1	5416
AT	310	19	M	PSYC4802-20144	1.0.1	Block	practice	6	20141029.105522	diff	20	same	0	3771
AT	310	19	M	PSYC4802-20144	1.0.1	Block	practice	7	20141029.105528	diff	20	diff	1	6732
AT	310	19	M	PSYC4802-20144	1.0.1	Block	practice	8	20141029.105537	diff	20	same	0	4961
AT	310	19	M	PSYC4802-20144	1.0.1	Block	practice	9	20141029.105544	diff	60	diff	1	6986
AT	310	19	M	PSYC4802-20144	1.0.1	Block	practice	10	20141029.105553	same	20	diff	0	2797
AT	310	19	M	PSYC4802-20144	1.0.1	Block	practice	11	20141029.105558	same	20	same	1	9721
AT	310	19	M	PSYC4802-20144	1.0.1	Block	practice	12	20141029.105609	same	100	diff	0	4981
AT	310	19	M	PSYC4802-20144	1.0.1	Block	practice	13	20141029.105616	same	60	diff	0	4681
AT	310	19	M	PSYC4802-20144	1.0.1	Block	practice	14	20141029.105623	same	100	diff	0	4571
AT	310	19	M	PSYC4802-20144	1.0.1	Block	practice	15	20141029.105630	diff	60	diff	1	5416
AT	310	19	M	PSYC4802-20144	1.0.1	Block	practice	16	20141029.105637	same	20	same	1	5967
AT	310	19	M	PSYC4802-20144	1.0.1	Block	practice	17	20141029.105645	same	100	same	1	4961
AT	310	19	M	PSYC4802-20144	1.0.1	Block	practice	18	20141029.105652	same	20	same	1	3972
AT	310	19	M	PSYC4802-20144	1.0.1	Block	practice	19	20141029.105658	diff	100	diff	1	12862
AT	310	19	M	PSYC4802-20144	1.0.1	Block	practice	20	20141029.105713	same	60	same	1	6442
AT	310	19	M	PSYC4802-20144	1.0.1	Block	practice	21	20141029.105722	diff	60	diff	1	5871
AT	310	19	M	PSYC4802-20144	1.0.1	Block	practice	22	20141029.105729	same	60	same	1	6941
AT	310	19	M	PSYC4802-20144	1.0.1	Block	practice	23	20141029.105738	diff	60	same	0	8497
AT	310	19	M	PSYC4802-20144	1.0.1	Block	practice	24	20141029.105749	diff	100	diff	1	9161
AT	310	19	M	PSYC4802-20144	1.0.1	Block	practice	25	20141029.105800	diff	100	diff	1	8751
AT	310	19	M	PSYC4802-20144	1.0.1	Block	practice	26	20141029.105811	diff	60	diff	1	10857
AT	310	19	M	PSYC4802-20144	1.0.1	Block	practice	27	20141029.105824	diff	20	same	0	3126
AT	310	19	M	PSYC4802-20144	1.0.1	Block	practice	28	20141029.105829	same	100	diff	0	2897
AT	310	19	M	PSYC4802-20144	1.0.1	Block	practice	29	20141029.105834	diff	20	same	0	2556
AT	310	19	M	PSYC4802-20144	1.0.1	Block	practice	30	20141029.105838	diff	100	same	0	1426
AT	310	19	M	PSYC4802-20144	1.0.1	Block	exp	31	20141029.105842	diff	60	same	0	2241
AT	310	19	M	PSYC4802-20144	1.0.1	Block	exp	32	20141029.105846	same	60	diff	0	1751
AT	310	19	M	PSYC4802-20144	1.0.1	Block	exp	33	20141029.105850	diff	20	diff	1	5271
AT	310	19	M	PSYC4802-20144	1.0.1	Block	exp	34	20141029.105857	same	20	same	1	5367
AT	310	19	M	PSYC4802-20144	1.0.1	Block	exp	35	20141029.105905	same	100	same	1	8611
AT	310	19	M	PSYC4802-20144	1.0.1	Block	exp	36	20141029.105916	diff	20	diff	1	7631
AT	310	19	M	PSYC4802-20144	1.0.1	Block	exp	37	20141029.105925	same	60	same	1	6201
AT	310	19	M	PSYC4802-20144	1.0.1	Block	exp	38	20141029.105934	same	60	diff	0	1871
AT	310	19	M	PSYC4802-20144	1.0.1	Block	exp	39	20141029.105938	diff	60	diff	1	4961
AT	310	19	M	PSYC4802-20144	1.0.1	Block	exp	40	20141029.105945	diff	100	same	0	5921
AT	310	19	M	PSYC4802-20144	1.0.1	Block	exp	41	20141029.105953	same	100	diff	0	8227
AT	310	19	M	PSYC4802-20144	1.0.1	Block	exp	42	20141029.110003	same	20	diff	0	5381
AT	310	19	M	PSYC4802-20144	1.0.1	Block	exp	43	20141029.110010	same	20	same	1	3556
AT	310	19	M	PSYC4802-20144	1.0.1	Block	exp	44	20141029.110016	diff	100	diff	1	4511
AT	310	19	M	PSYC4802-20144	1.0.1	Block	exp	45	20141029.110023	diff	60	diff	1	4301
AT	310	19	M	PSYC4802-20144	1.0.1	Block	exp	46	20141029.110029	same	20	same	1	7026
AT	310	19	M	PSYC4802-20144	1.0.1	Block	exp	47	20141029.110038	diff	20	same	0	5142
AT	310	19	M	PSYC4802-20144	1.0.1	Block	exp	48	20141029.110045	same	100	diff	0	3906
AT	310	19	M	PSYC4802-20144	1.0.1	Block	exp	49	20141029.110051	same	20	same	1	831
AT	310	19	M	PSYC4802-20144	1.0.1	Block	exp	50	20141029.110054	diff	20	diff	1	306
AT	310	19	M	PSYC4802-20144	1.0.1	Block	exp	51	20141029.110102	diff	100	diff	1	8431
AT	310	19	M	PSYC4802-20144	1.0.1	Block	exp	52	20141029.110112	diff	60	diff	1	4392
AT	310	19	M	PSYC4802-20144	1.0.1	Block	exp	53	20141029.110118	same	60	same	1	4931
AT	310	19	M	PSYC4802-20144	1.0.1	Block	exp	54	20141029.110125	same	20	same	1	4946
AT	310	19	M	PSYC4802-20144	1.0.1	Block	exp	55	20141029.110132	diff	20	diff	1	2726
AT	310	19	M	PSYC4802-20144	1.0.1	Block	exp	56	20141029.110137	same	60	same	1	5316
AT	310	19	M	PSYC4802-20144	1.0.1	Block	exp	57	20141029.110145	diff	60	diff	1	4511
AT	310	19	M	PSYC4802-20144	1.0.1	Block	exp	58	20141029.110151	diff	60	diff	1	4116
AT	310	19	M	PSYC4802-20144	1.0.1	Block	exp	59	20141029.110157	same	100	same	1	6266
AT	310	19	M	PSYC4802-20144	1.0.1	Block	exp	60	20141029.110206	diff	20	diff	1	3916
AT	310	19	M	PSYC4802-20144	1.0.1	Block	exp	61	20141029.110212	same	20	same	1	5596
AT	310	19	M	PSYC4802-20144	1.0.1	Block	exp	62	20141029.110219	same	20	same	1	4291
AT	310	19	M	PSYC4802-20144	1.0.1	Block	exp	63	20141029.110226	same	60	same	1	3641
AT	310	19	M	PSYC4802-20144	1.0.1	Block	exp	64	20141029.110231	same	100	diff	0	2492
AT	310	19	M	PSYC4802-20144	1.0.1	Block	exp	65	20141029.110236	same	100	same	1	6447
AT	310	19	M	PSYC4802-20144	1.0.1	Block	exp	66	20141029.110244	same	100	same	1	7711
AT	310	19	M	PSYC4802-20144	1.0.1	Block	exp	67	20141029.110254	diff	100	diff	1	4521
AT	310	19	M	PSYC4802-20144	1.0.1	Block	exp	68	20141029.110301	diff	60	diff	1	2111
AT	310	19	M	PSYC4802-20144	1.0.1	Block	exp	69	20141029.110305	diff	100	diff	1	4006
AT	310	19	M	PSYC4802-20144	1.0.1	Block	exp	70	20141029.110311	same	60	same	1	4976
AT	310	19	M	PSYC4802-20144	1.0.1	Block	exp	71	20141029.110318	same	60	same	1	4851
AT	310	19	M	PSYC4802-20144	1.0.1	Block	exp	72	20141029.110325	diff	20	diff	1	1411
AT	310	19	M	PSYC4802-20144	1.0.1	Block	exp	73	20141029.110328	diff	100	same	0	9832
AT	310	19	M	PSYC4802-20144	1.0.1	Block	exp	74	20141029.110340	diff	60	diff	1	3716
AT	310	19	M	PSYC4802-20144	1.0.1	Block	exp	75	20141029.110346	diff	20	diff	1	5196
AT	310	19	M	PSYC4802-20144	1.0.1	Block	exp	76	20141029.110353	diff	60	diff	1	5566
AT	310	19	M	PSYC4802-20144	1.0.1	Block	exp	77	20141029.110401	diff	60	diff	1	6747
AT	310	19	M	PSYC4802-20144	1.0.1	Block	exp	78	20141029.110409	diff	20	same	0	4251
AT	310	19	M	PSYC4802-20144	1.0.1	Block	exp	79	20141029.110416	same	100	same	1	6836
AT	310	19	M	PSYC4802-20144	1.0.1	Block	exp	80	20141029.110425	same	60	diff	0	5436
AT	310	19	M	PSYC4802-20144	1.0.1	Block	exp	81	20141029.110432	same	100	same	1	6431
AT	310	19	M	PSYC4802-20144	1.0.1	Block	exp	82	20141029.110441	same	100	same	1	6042
AT	310	19	M	PSYC4802-20144	1.0.1	Block	exp	83	20141029.110449	same	100	same	1	5466
AT	310	19	M	PSYC4802-20144	1.0.1	Block	exp	84	20141029.110456	diff	20	diff	1	2431
AT	310	19	M	PSYC4802-20144	1.0.1	Block	exp	85	20141029.110501	same	100	same	1	4582
AT	310	19	M	PSYC4802-20144	1.0.1	Block	exp	86	20141029.110507	diff	60	diff	1	3986
AT	310	19	M	PSYC4802-20144	1.0.1	Block	exp	87	20141029.110513	same	60	same	1	3966
AT	310	19	M	PSYC4802-20144	1.0.1	Block	exp	88	20141029.110519	same	20	diff	0	3626
AT	310	19	M	PSYC4802-20144	1.0.1	Block	exp	89	20141029.110525	diff	100	diff	1	4916
AT	310	19	M	PSYC4802-20144	1.0.1	Block	exp	90	20141029.110532	same	60	same	1	6211
AT	310	19	M	PSYC4802-20144	1.0.1	Block	exp	91	20141029.110540	diff	20	diff	1	3191
AT	310	19	M	PSYC4802-20144	1.0.1	Block	exp	92	20141029.110545	diff	100	diff	1	4717
AT	310	19	M	PSYC4802-20144	1.0.1	Block	exp	93	20141029.110552	diff	60	diff	1	5211
AT	310	19	M	PSYC4802-20144	1.0.1	Block	exp	94	20141029.110559	diff	60	same	0	5361
AT	310	19	M	PSYC4802-20144	1.0.1	Block	exp	95	20141029.110607	same	20	same	1	461
AT	310	19	M	PSYC4802-20144	1.0.1	Block	exp	96	20141029.110609	diff	100	diff	1	366
AT	310	19	M	PSYC4802-20144	1.0.1	Block	exp	97	20141029.110612	diff	100	same	0	1596
AT	310	19	M	PSYC4802-20144	1.0.1	Block	exp	98	20141029.110615	diff	60	diff	1	5061
AT	310	19	M	PSYC4802-20144	1.0.1	Block	exp	99	20141029.110623	diff	60	same	0	2461
AT	310	19	M	PSYC4802-20144	1.0.1	Block	exp	100	20141029.110627	diff	100	diff	1	4566
AT	310	19	M	PSYC4802-20144	1.0.1	Block	exp	101	20141029.110646	same	100	diff	0	5152
AT	310	19	M	PSYC4802-20144	1.0.1	Block	exp	102	20141029.110653	same	20	same	1	4571
AT	310	19	M	PSYC4802-20144	1.0.1	Block	exp	103	20141029.110700	diff	100	diff	1	2662
AT	310	19	M	PSYC4802-20144	1.0.1	Block	exp	104	20141029.110705	same	60	diff	0	4021
AT	310	19	M	PSYC4802-20144	1.0.1	Block	exp	105	20141029.110711	diff	20	diff	1	3456
AT	310	19	M	PSYC4802-20144	1.0.1	Block	exp	106	20141029.110716	same	20	same	1	3467
AT	310	19	M	PSYC4802-20144	1.0.1	Block	exp	107	20141029.110722	diff	60	diff	1	6811
AT	310	19	M	PSYC4802-20144	1.0.1	Block	exp	108	20141029.110731	same	100	same	1	10306
AT	310	19	M	PSYC4802-20144	1.0.1	Block	exp	109	20141029.110743	same	60	same	1	5796
AT	310	19	M	PSYC4802-20144	1.0.1	Block	exp	110	20141029.110751	same	60	same	1	4621
AT	310	19	M	PSYC4802-20144	1.0.1	Block	exp	111	20141029.110758	diff	100	diff	1	4366
AT	310	19	M	PSYC4802-20144	1.0.1	Block	exp	112	20141029.110804	same	20	same	1	4246
AT	310	19	M	PSYC4802-20144	1.0.1	Block	exp	113	20141029.110810	same	100	same	1	4036
AT	310	19	M	PSYC4802-20144	1.0.1	Block	exp	114	20141029.110817	same	60	same	1	4861
AT	310	19	M	PSYC4802-20144	1.0.1	Block	exp	115	20141029.110823	diff	60	diff	1	4766
AT	310	19	M	PSYC4802-20144	1.0.1	Block	exp	116	20141029.110830	same	60	same	1	5282
AT	310	19	M	PSYC4802-20144	1.0.1	Block	exp	117	20141029.110838	same	60	same	1	4206
AT	310	19	M	PSYC4802-20144	1.0.1	Block	exp	118	20141029.110844	diff	20	diff	1	4006
AT	310	19	M	PSYC4802-20144	1.0.1	Block	exp	119	20141029.110850	same	20	same	1	4531
AT	310	19	M	PSYC4802-20144	1.0.1	Block	exp	120	20141029.110857	diff	100	diff	1	2867
AT	310	19	M	PSYC4802-20144	1.0.1	Block	exp	121	20141029.110901	diff	100	diff	1	3151
AT	310	19	M	PSYC4802-20144	1.0.1	Block	exp	122	20141029.110907	diff	100	diff	1	2631
AT	310	19	M	PSYC4802-20144	1.0.1	Block	exp	123	20141029.110911	same	100	same	1	4346
AT	310	19	M	PSYC4802-20144	1.0.1	Block	exp	124	20141029.110918	same	20	same	1	3017
AT	310	19	M	PSYC4802-20144	1.0.1	Block	exp	125	20141029.110923	diff	20	diff	1	3397
AT	310	19	M	PSYC4802-20144	1.0.1	Block	exp	126	20141029.110928	same	100	same	1	4402
AT	310	19	M	PSYC4802-20144	1.0.1	Block	exp	127	20141029.110935	diff	20	same	0	6526
AT	310	19	M	PSYC4802-20144	1.0.1	Block	exp	128	20141029.110943	same	20	same	1	7727
AT	310	19	M	PSYC4802-20144	1.0.1	Block	exp	129	20141029.110953	diff	60	same	0	6381
AT	310	19	M	PSYC4802-20144	1.0.1	Block	exp	130	20141029.111001	diff	100	diff	1	4086
AT	310	19	M	PSYC4802-20144	1.0.1	Block	exp	131	20141029.111007	diff	100	diff	1	3032
AT	310	19	M	PSYC4802-20144	1.0.1	Block	exp	132	20141029.111012	same	100	diff	0	6581
AT	310	19	M	PSYC4802-20144	1.0.1	Block	exp	133	20141029.111021	same	20	same	1	2621
AT	310	19	M	PSYC4802-20144	1.0.1	Block	exp	134	20141029.111026	same	60	same	1	4761
AT	310	19	M	PSYC4802-20144	1.0.1	Block	exp	135	20141029.111033	same	100	same	1	5226
AT	310	19	M	PSYC4802-20144	1.0.1	Block	exp	136	20141029.111040	diff	60	diff	1	2946
AT	310	19	M	PSYC4802-20144	1.0.1	Block	exp	137	20141029.111045	diff	100	diff	1	3722
AT	310	19	M	PSYC4802-20144	1.0.1	Block	exp	138	20141029.111051	diff	20	same	0	3156
AT	310	19	M	PSYC4802-20144	1.0.1	Block	exp	139	20141029.111056	diff	60	diff	1	4986
AT	310	19	M	PSYC4802-20144	1.0.1	Block	exp	140	20141029.111103	same	20	diff	0	5232
AT	310	19	M	PSYC4802-20144	1.0.1	Block	exp	141	20141029.111112	same	20	same	1	4522
AT	310	19	M	PSYC4802-20144	1.0.1	Block	exp	142	20141029.111118	diff	100	diff	1	4566
AT	310	19	M	PSYC4802-20144	1.0.1	Block	exp	143	20141029.111125	same	60	same	1	3401
AT	310	19	M	PSYC4802-20144	1.0.1	Block	exp	144	20141029.111131	same	100	same	1	5452
AT	310	19	M	PSYC4802-20144	1.0.1	Block	exp	145	20141029.111138	diff	20	same	0	4876
AT	310	19	M	PSYC4802-20144	1.0.1	Block	exp	146	20141029.111145	diff	20	diff	1	4616
AT	310	19	M	PSYC4802-20144	1.0.1	Block	exp	147	20141029.111152	same	20	same	1	4431
AT	310	19	M	PSYC4802-20144	1.0.1	Block	exp	148	20141029.111158	diff	20	diff	1	4271
AT	310	19	M	PSYC4802-20144	1.0.1	Block	exp	149	20141029.111205	diff	20	same	0	3806
AT	310	19	M	PSYC4802-20144	1.0.1	Block	exp	150	20141029.111211	same	60	diff	0	3011
