Experimenter	Subject	Age	Sex	Experiment	Version	Block	TrialType	Trial	Timestamp	SameDiff	Rotation	Response	Acc	RT
AMZ	95	21	m	PSYC4802-20142	1.0	Block	practice	1	20140428.114646	diff	60	diff	1	5151
AMZ	95	21	m	PSYC4802-20142	1.0	Block	practice	2	20140428.114654	diff	100	diff	1	6933
AMZ	95	21	m	PSYC4802-20142	1.0	Block	practice	3	20140428.114703	diff	100	diff	1	3605
AMZ	95	21	m	PSYC4802-20142	1.0	Block	practice	4	20140428.114709	diff	60	diff	1	5860
AMZ	95	21	m	PSYC4802-20142	1.0	Block	practice	5	20140428.114717	same	20	same	1	1190
AMZ	95	21	m	PSYC4802-20142	1.0	Block	practice	6	20140428.114720	same	20	same	1	1102
AMZ	95	21	m	PSYC4802-20142	1.0	Block	practice	7	20140428.114723	same	100	same	1	9499
AMZ	95	21	m	PSYC4802-20142	1.0	Block	practice	8	20140428.114735	same	60	same	1	1853
AMZ	95	21	m	PSYC4802-20142	1.0	Block	practice	9	20140428.114738	same	100	same	1	1952
AMZ	95	21	m	PSYC4802-20142	1.0	Block	practice	10	20140428.114742	diff	20	diff	1	5368
AMZ	95	21	m	PSYC4802-20142	1.0	Block	practice	11	20140428.114750	same	100	same	1	2181
AMZ	95	21	m	PSYC4802-20142	1.0	Block	practice	12	20140428.114754	same	20	same	1	1150
AMZ	95	21	m	PSYC4802-20142	1.0	Block	practice	13	20140428.114757	same	100	same	1	2063
AMZ	95	21	m	PSYC4802-20142	1.0	Block	practice	14	20140428.114801	diff	100	diff	1	2796
AMZ	95	21	m	PSYC4802-20142	1.0	Block	practice	15	20140428.114806	same	100	same	1	1454
AMZ	95	21	m	PSYC4802-20142	1.0	Block	practice	16	20140428.114809	same	60	same	1	1114
AMZ	95	21	m	PSYC4802-20142	1.0	Block	practice	17	20140428.114813	same	60	same	1	2128
AMZ	95	21	m	PSYC4802-20142	1.0	Block	practice	18	20140428.114817	same	20	same	1	2825
AMZ	95	21	m	PSYC4802-20142	1.0	Block	practice	19	20140428.114822	diff	60	same	0	16026
AMZ	95	21	m	PSYC4802-20142	1.0	Block	practice	20	20140428.114840	same	60	same	1	3588
AMZ	95	21	m	PSYC4802-20142	1.0	Block	practice	21	20140428.114845	diff	60	same	0	1970
AMZ	95	21	m	PSYC4802-20142	1.0	Block	practice	22	20140428.114849	diff	100	diff	1	6904
AMZ	95	21	m	PSYC4802-20142	1.0	Block	practice	23	20140428.114858	diff	20	diff	1	6311
AMZ	95	21	m	PSYC4802-20142	1.0	Block	practice	24	20140428.114906	diff	20	diff	1	11615
AMZ	95	21	m	PSYC4802-20142	1.0	Block	practice	25	20140428.114920	diff	60	same	0	5966
AMZ	95	21	m	PSYC4802-20142	1.0	Block	practice	26	20140428.114928	diff	20	diff	1	7594
AMZ	95	21	m	PSYC4802-20142	1.0	Block	practice	27	20140428.114938	same	20	same	1	4647
AMZ	95	21	m	PSYC4802-20142	1.0	Block	practice	28	20140428.114944	diff	20	diff	1	6633
AMZ	95	21	m	PSYC4802-20142	1.0	Block	practice	29	20140428.114953	diff	100	diff	1	6962
AMZ	95	21	m	PSYC4802-20142	1.0	Block	practice	30	20140428.115002	same	60	same	1	5204
AMZ	95	21	m	PSYC4802-20142	1.0	Block	exp	31	20140428.115009	same	60	same	1	4619
AMZ	95	21	m	PSYC4802-20142	1.0	Block	exp	32	20140428.115016	same	20	same	1	3429
AMZ	95	21	m	PSYC4802-20142	1.0	Block	exp	33	20140428.115021	same	20	same	1	3546
AMZ	95	21	m	PSYC4802-20142	1.0	Block	exp	34	20140428.115027	diff	100	diff	1	3822
AMZ	95	21	m	PSYC4802-20142	1.0	Block	exp	35	20140428.115032	same	60	same	1	7595
AMZ	95	21	m	PSYC4802-20142	1.0	Block	exp	36	20140428.115042	diff	100	same	0	4648
AMZ	95	21	m	PSYC4802-20142	1.0	Block	exp	37	20140428.115049	diff	20	diff	1	12523
AMZ	95	21	m	PSYC4802-20142	1.0	Block	exp	38	20140428.115103	diff	100	diff	1	7308
AMZ	95	21	m	PSYC4802-20142	1.0	Block	exp	39	20140428.115113	same	60	diff	0	5058
AMZ	95	21	m	PSYC4802-20142	1.0	Block	exp	40	20140428.115120	diff	60	diff	1	7102
AMZ	95	21	m	PSYC4802-20142	1.0	Block	exp	41	20140428.115129	diff	60	diff	1	10120
AMZ	95	21	m	PSYC4802-20142	1.0	Block	exp	42	20140428.115141	diff	60	diff	1	6353
AMZ	95	21	m	PSYC4802-20142	1.0	Block	exp	43	20140428.115149	same	60	diff	0	8140
AMZ	95	21	m	PSYC4802-20142	1.0	Block	exp	44	20140428.115159	same	100	diff	0	8386
AMZ	95	21	m	PSYC4802-20142	1.0	Block	exp	45	20140428.115210	diff	100	diff	1	11485
AMZ	95	21	m	PSYC4802-20142	1.0	Block	exp	46	20140428.115223	diff	60	diff	1	11602
AMZ	95	21	m	PSYC4802-20142	1.0	Block	exp	47	20140428.115237	diff	100	diff	1	6288
AMZ	95	21	m	PSYC4802-20142	1.0	Block	exp	48	20140428.115245	diff	20	diff	1	7231
AMZ	95	21	m	PSYC4802-20142	1.0	Block	exp	49	20140428.115254	same	60	same	1	5538
AMZ	95	21	m	PSYC4802-20142	1.0	Block	exp	50	20140428.115302	same	20	same	1	3242
AMZ	95	21	m	PSYC4802-20142	1.0	Block	exp	51	20140428.115315	diff	20	diff	1	7501
AMZ	95	21	m	PSYC4802-20142	1.0	Block	exp	52	20140428.115325	same	20	same	1	3534
AMZ	95	21	m	PSYC4802-20142	1.0	Block	exp	53	20140428.115330	same	20	same	1	2766
AMZ	95	21	m	PSYC4802-20142	1.0	Block	exp	54	20140428.115335	diff	60	diff	1	7108
AMZ	95	21	m	PSYC4802-20142	1.0	Block	exp	55	20140428.115344	same	60	same	1	4947
AMZ	95	21	m	PSYC4802-20142	1.0	Block	exp	56	20140428.115351	diff	100	diff	1	8087
AMZ	95	21	m	PSYC4802-20142	1.0	Block	exp	57	20140428.115401	diff	60	diff	1	6136
AMZ	95	21	m	PSYC4802-20142	1.0	Block	exp	58	20140428.115409	same	100	diff	0	4155
AMZ	95	21	m	PSYC4802-20142	1.0	Block	exp	59	20140428.115416	diff	100	diff	1	6903
AMZ	95	21	m	PSYC4802-20142	1.0	Block	exp	60	20140428.115424	diff	20	diff	1	7906
AMZ	95	21	m	PSYC4802-20142	1.0	Block	exp	61	20140428.115434	same	100	diff	0	7566
AMZ	95	21	m	PSYC4802-20142	1.0	Block	exp	62	20140428.115444	diff	100	diff	1	6007
AMZ	95	21	m	PSYC4802-20142	1.0	Block	exp	63	20140428.115452	same	100	same	1	7600
AMZ	95	21	m	PSYC4802-20142	1.0	Block	exp	64	20140428.115502	diff	20	diff	1	8134
AMZ	95	21	m	PSYC4802-20142	1.0	Block	exp	65	20140428.115512	same	100	same	1	10284
AMZ	95	21	m	PSYC4802-20142	1.0	Block	exp	66	20140428.115524	same	20	same	1	5772
AMZ	95	21	m	PSYC4802-20142	1.0	Block	exp	67	20140428.115532	same	60	same	1	4226
AMZ	95	21	m	PSYC4802-20142	1.0	Block	exp	68	20140428.115538	same	60	same	1	4982
AMZ	95	21	m	PSYC4802-20142	1.0	Block	exp	69	20140428.115545	diff	100	diff	1	6324
AMZ	95	21	m	PSYC4802-20142	1.0	Block	exp	70	20140428.115553	diff	100	diff	1	5843
AMZ	95	21	m	PSYC4802-20142	1.0	Block	exp	71	20140428.115601	diff	60	diff	1	6921
AMZ	95	21	m	PSYC4802-20142	1.0	Block	exp	72	20140428.115610	diff	100	diff	1	8116
AMZ	95	21	m	PSYC4802-20142	1.0	Block	exp	73	20140428.115620	same	100	diff	0	2826
AMZ	95	21	m	PSYC4802-20142	1.0	Block	exp	74	20140428.115625	same	100	same	1	6124
AMZ	95	21	m	PSYC4802-20142	1.0	Block	exp	75	20140428.115633	diff	20	same	0	6399
AMZ	95	21	m	PSYC4802-20142	1.0	Block	exp	76	20140428.115641	diff	60	diff	1	5678
AMZ	95	21	m	PSYC4802-20142	1.0	Block	exp	77	20140428.115649	same	60	same	1	5327
AMZ	95	21	m	PSYC4802-20142	1.0	Block	exp	78	20140428.115656	same	20	same	1	3318
AMZ	95	21	m	PSYC4802-20142	1.0	Block	exp	79	20140428.115702	diff	20	diff	1	7460
AMZ	95	21	m	PSYC4802-20142	1.0	Block	exp	80	20140428.115711	same	20	same	1	3418
AMZ	95	21	m	PSYC4802-20142	1.0	Block	exp	81	20140428.115717	diff	100	diff	1	4062
AMZ	95	21	m	PSYC4802-20142	1.0	Block	exp	82	20140428.115723	same	20	same	1	2210
AMZ	95	21	m	PSYC4802-20142	1.0	Block	exp	83	20140428.115727	diff	20	diff	1	6107
AMZ	95	21	m	PSYC4802-20142	1.0	Block	exp	84	20140428.115735	diff	20	diff	1	5350
AMZ	95	21	m	PSYC4802-20142	1.0	Block	exp	85	20140428.115742	diff	100	diff	1	3189
AMZ	95	21	m	PSYC4802-20142	1.0	Block	exp	86	20140428.115748	same	60	diff	0	2819
AMZ	95	21	m	PSYC4802-20142	1.0	Block	exp	87	20140428.115753	diff	20	diff	1	6862
AMZ	95	21	m	PSYC4802-20142	1.0	Block	exp	88	20140428.115801	same	100	same	1	11632
AMZ	95	21	m	PSYC4802-20142	1.0	Block	exp	89	20140428.115815	diff	20	diff	1	7613
AMZ	95	21	m	PSYC4802-20142	1.0	Block	exp	90	20140428.115825	same	60	same	1	4706
AMZ	95	21	m	PSYC4802-20142	1.0	Block	exp	91	20140428.115831	diff	60	diff	1	4665
AMZ	95	21	m	PSYC4802-20142	1.0	Block	exp	92	20140428.115838	same	60	same	1	4648
AMZ	95	21	m	PSYC4802-20142	1.0	Block	exp	93	20140428.115845	same	100	diff	0	4501
AMZ	95	21	m	PSYC4802-20142	1.0	Block	exp	94	20140428.115851	diff	60	diff	1	8239
AMZ	95	21	m	PSYC4802-20142	1.0	Block	exp	95	20140428.115901	diff	20	diff	1	10536
AMZ	95	21	m	PSYC4802-20142	1.0	Block	exp	96	20140428.115914	diff	20	diff	1	5568
AMZ	95	21	m	PSYC4802-20142	1.0	Block	exp	97	20140428.115922	diff	20	diff	1	5855
AMZ	95	21	m	PSYC4802-20142	1.0	Block	exp	98	20140428.115929	diff	60	diff	1	8942
AMZ	95	21	m	PSYC4802-20142	1.0	Block	exp	99	20140428.115940	diff	100	diff	1	7800
AMZ	95	21	m	PSYC4802-20142	1.0	Block	exp	100	20140428.115950	diff	20	diff	1	2896
AMZ	95	21	m	PSYC4802-20142	1.0	Block	exp	101	20140428.120010	diff	60	diff	1	3188
AMZ	95	21	m	PSYC4802-20142	1.0	Block	exp	102	20140428.120016	same	20	same	1	3247
AMZ	95	21	m	PSYC4802-20142	1.0	Block	exp	103	20140428.120021	same	60	same	1	2058
AMZ	95	21	m	PSYC4802-20142	1.0	Block	exp	104	20140428.120025	diff	60	diff	1	3915
AMZ	95	21	m	PSYC4802-20142	1.0	Block	exp	105	20140428.120031	diff	100	diff	1	5046
AMZ	95	21	m	PSYC4802-20142	1.0	Block	exp	106	20140428.120038	same	60	same	1	3845
AMZ	95	21	m	PSYC4802-20142	1.0	Block	exp	107	20140428.120044	diff	100	diff	1	6804
AMZ	95	21	m	PSYC4802-20142	1.0	Block	exp	108	20140428.120052	same	60	same	1	5690
AMZ	95	21	m	PSYC4802-20142	1.0	Block	exp	109	20140428.120100	same	60	same	1	5227
AMZ	95	21	m	PSYC4802-20142	1.0	Block	exp	110	20140428.120107	same	100	diff	0	2614
AMZ	95	21	m	PSYC4802-20142	1.0	Block	exp	111	20140428.120112	same	20	same	1	2914
AMZ	95	21	m	PSYC4802-20142	1.0	Block	exp	112	20140428.120117	same	60	same	1	7536
AMZ	95	21	m	PSYC4802-20142	1.0	Block	exp	113	20140428.120126	same	60	same	1	8040
AMZ	95	21	m	PSYC4802-20142	1.0	Block	exp	114	20140428.120136	same	20	same	1	3804
AMZ	95	21	m	PSYC4802-20142	1.0	Block	exp	115	20140428.120142	same	20	same	1	2163
AMZ	95	21	m	PSYC4802-20142	1.0	Block	exp	116	20140428.120146	diff	60	diff	1	2005
AMZ	95	21	m	PSYC4802-20142	1.0	Block	exp	117	20140428.120150	same	100	same	1	5403
AMZ	95	21	m	PSYC4802-20142	1.0	Block	exp	118	20140428.120158	diff	20	diff	1	3317
AMZ	95	21	m	PSYC4802-20142	1.0	Block	exp	119	20140428.120203	diff	20	diff	1	3019
AMZ	95	21	m	PSYC4802-20142	1.0	Block	exp	120	20140428.120208	same	20	same	1	2392
AMZ	95	21	m	PSYC4802-20142	1.0	Block	exp	121	20140428.120212	diff	20	diff	1	3868
AMZ	95	21	m	PSYC4802-20142	1.0	Block	exp	122	20140428.120218	same	100	diff	0	1466
AMZ	95	21	m	PSYC4802-20142	1.0	Block	exp	123	20140428.120222	diff	60	diff	1	4442
AMZ	95	21	m	PSYC4802-20142	1.0	Block	exp	124	20140428.120228	diff	100	diff	1	2509
AMZ	95	21	m	PSYC4802-20142	1.0	Block	exp	125	20140428.120233	diff	20	diff	1	4507
AMZ	95	21	m	PSYC4802-20142	1.0	Block	exp	126	20140428.120239	same	100	same	1	8814
AMZ	95	21	m	PSYC4802-20142	1.0	Block	exp	127	20140428.120250	same	100	same	1	5872
AMZ	95	21	m	PSYC4802-20142	1.0	Block	exp	128	20140428.120258	same	20	same	1	2128
AMZ	95	21	m	PSYC4802-20142	1.0	Block	exp	129	20140428.120302	diff	60	diff	1	5328
AMZ	95	21	m	PSYC4802-20142	1.0	Block	exp	130	20140428.120309	same	20	same	1	2011
AMZ	95	21	m	PSYC4802-20142	1.0	Block	exp	131	20140428.120313	same	100	diff	0	3182
AMZ	95	21	m	PSYC4802-20142	1.0	Block	exp	132	20140428.120318	diff	60	diff	1	6265
AMZ	95	21	m	PSYC4802-20142	1.0	Block	exp	133	20140428.120327	diff	100	diff	1	2480
AMZ	95	21	m	PSYC4802-20142	1.0	Block	exp	134	20140428.120331	same	100	diff	0	3188
AMZ	95	21	m	PSYC4802-20142	1.0	Block	exp	135	20140428.120336	same	100	same	1	5239
AMZ	95	21	m	PSYC4802-20142	1.0	Block	exp	136	20140428.120344	same	100	same	1	4103
AMZ	95	21	m	PSYC4802-20142	1.0	Block	exp	137	20140428.120350	same	60	same	1	7390
AMZ	95	21	m	PSYC4802-20142	1.0	Block	exp	138	20140428.120359	diff	100	diff	1	7841
AMZ	95	21	m	PSYC4802-20142	1.0	Block	exp	139	20140428.120409	diff	60	diff	1	2497
AMZ	95	21	m	PSYC4802-20142	1.0	Block	exp	140	20140428.120413	same	20	same	1	534
AMZ	95	21	m	PSYC4802-20142	1.0	Block	exp	141	20140428.120416	diff	100	diff	1	10284
AMZ	95	21	m	PSYC4802-20142	1.0	Block	exp	142	20140428.120428	diff	60	diff	1	4671
AMZ	95	21	m	PSYC4802-20142	1.0	Block	exp	143	20140428.120435	same	20	same	1	2040
AMZ	95	21	m	PSYC4802-20142	1.0	Block	exp	144	20140428.120439	diff	60	diff	1	2819
AMZ	95	21	m	PSYC4802-20142	1.0	Block	exp	145	20140428.120444	same	100	diff	0	7882
AMZ	95	21	m	PSYC4802-20142	1.0	Block	exp	146	20140428.120454	same	60	same	1	7736
AMZ	95	21	m	PSYC4802-20142	1.0	Block	exp	147	20140428.120503	same	20	same	1	3130
AMZ	95	21	m	PSYC4802-20142	1.0	Block	exp	148	20140428.120508	same	100	diff	0	3247
AMZ	95	21	m	PSYC4802-20142	1.0	Block	exp	149	20140428.120514	diff	20	diff	1	2485
AMZ	95	21	m	PSYC4802-20142	1.0	Block	exp	150	20140428.120518	same	20	same	1	4981
