Experimenter	Subject	Age	Sex	Experiment	Version	Block	TrialType	Trial	Timestamp	SameDiff	Rotation	Response	Acc	RT
KA	97	19	f	PSYC4802-20142	1.0	Block	practice	1	20140428.114753	same	20	same	1	9962
KA	97	19	f	PSYC4802-20142	1.0	Block	practice	2	20140428.114805	diff	100	diff	1	8316
KA	97	19	f	PSYC4802-20142	1.0	Block	practice	3	20140428.114816	diff	60	diff	1	23502
KA	97	19	f	PSYC4802-20142	1.0	Block	practice	4	20140428.114841	diff	20	diff	1	8579
KA	97	19	f	PSYC4802-20142	1.0	Block	practice	5	20140428.114852	same	100	same	1	7436
KA	97	19	f	PSYC4802-20142	1.0	Block	practice	6	20140428.114901	diff	100	diff	1	1870
KA	97	19	f	PSYC4802-20142	1.0	Block	practice	7	20140428.114905	diff	60	same	0	1817
KA	97	19	f	PSYC4802-20142	1.0	Block	practice	8	20140428.114909	same	100	diff	0	7272
KA	97	19	f	PSYC4802-20142	1.0	Block	practice	9	20140428.114918	diff	20	diff	1	5087
KA	97	19	f	PSYC4802-20142	1.0	Block	practice	10	20140428.114925	same	100	same	1	2878
KA	97	19	f	PSYC4802-20142	1.0	Block	practice	11	20140428.114930	diff	20	same	0	6845
KA	97	19	f	PSYC4802-20142	1.0	Block	practice	12	20140428.114939	diff	100	diff	1	11538
KA	97	19	f	PSYC4802-20142	1.0	Block	practice	13	20140428.114953	diff	20	diff	1	3898
KA	97	19	f	PSYC4802-20142	1.0	Block	practice	14	20140428.114959	same	100	same	1	2937
KA	97	19	f	PSYC4802-20142	1.0	Block	practice	15	20140428.115004	diff	60	same	0	7114
KA	97	19	f	PSYC4802-20142	1.0	Block	practice	16	20140428.115013	same	20	same	1	9042
KA	97	19	f	PSYC4802-20142	1.0	Block	practice	17	20140428.115024	same	20	same	1	2363
KA	97	19	f	PSYC4802-20142	1.0	Block	practice	18	20140428.115028	diff	60	same	0	5772
KA	97	19	f	PSYC4802-20142	1.0	Block	practice	19	20140428.115036	diff	100	same	0	3482
KA	97	19	f	PSYC4802-20142	1.0	Block	practice	20	20140428.115042	same	60	diff	0	1917
KA	97	19	f	PSYC4802-20142	1.0	Block	practice	21	20140428.115046	same	60	diff	0	5022
KA	97	19	f	PSYC4802-20142	1.0	Block	practice	22	20140428.115053	same	20	same	1	2087
KA	97	19	f	PSYC4802-20142	1.0	Block	practice	23	20140428.115057	diff	60	diff	1	2872
KA	97	19	f	PSYC4802-20142	1.0	Block	practice	24	20140428.115102	same	20	65	-3	1249
KA	97	19	f	PSYC4802-20142	1.0	Block	practice	25	20140428.115105	diff	100	same	0	722
KA	97	19	f	PSYC4802-20142	1.0	Block	practice	26	20140428.115108	diff	20	diff	1	2896
KA	97	19	f	PSYC4802-20142	1.0	Block	practice	27	20140428.115113	same	100	same	1	1355
KA	97	19	f	PSYC4802-20142	1.0	Block	practice	28	20140428.115116	same	60	diff	0	2714
KA	97	19	f	PSYC4802-20142	1.0	Block	practice	29	20140428.115121	same	60	diff	0	6715
KA	97	19	f	PSYC4802-20142	1.0	Block	practice	30	20140428.115130	same	60	same	1	8175
KA	97	19	f	PSYC4802-20142	1.0	Block	exp	31	20140428.115140	same	100	same	1	6283
KA	97	19	f	PSYC4802-20142	1.0	Block	exp	32	20140428.115148	diff	60	diff	1	2110
KA	97	19	f	PSYC4802-20142	1.0	Block	exp	33	20140428.115153	same	20	same	1	1343
KA	97	19	f	PSYC4802-20142	1.0	Block	exp	34	20140428.115156	diff	60	diff	1	1361
KA	97	19	f	PSYC4802-20142	1.0	Block	exp	35	20140428.115200	same	20	same	1	1378
KA	97	19	f	PSYC4802-20142	1.0	Block	exp	36	20140428.115203	diff	20	same	0	1513
KA	97	19	f	PSYC4802-20142	1.0	Block	exp	37	20140428.115207	same	60	diff	0	8508
KA	97	19	f	PSYC4802-20142	1.0	Block	exp	38	20140428.115217	same	100	diff	0	6352
KA	97	19	f	PSYC4802-20142	1.0	Block	exp	39	20140428.115226	diff	100	same	0	6376
KA	97	19	f	PSYC4802-20142	1.0	Block	exp	40	20140428.115234	same	60	same	1	9206
KA	97	19	f	PSYC4802-20142	1.0	Block	exp	41	20140428.115245	same	20	same	1	8075
KA	97	19	f	PSYC4802-20142	1.0	Block	exp	42	20140428.115255	same	60	same	1	9323
KA	97	19	f	PSYC4802-20142	1.0	Block	exp	43	20140428.115307	same	100	diff	0	4711
KA	97	19	f	PSYC4802-20142	1.0	Block	exp	44	20140428.115313	same	100	same	1	13103
KA	97	19	f	PSYC4802-20142	1.0	Block	exp	45	20140428.115329	diff	100	same	0	4782
KA	97	19	f	PSYC4802-20142	1.0	Block	exp	46	20140428.115335	diff	20	same	0	2883
KA	97	19	f	PSYC4802-20142	1.0	Block	exp	47	20140428.115340	diff	100	same	0	3048
KA	97	19	f	PSYC4802-20142	1.0	Block	exp	48	20140428.115345	diff	20	diff	1	2438
KA	97	19	f	PSYC4802-20142	1.0	Block	exp	49	20140428.115350	same	60	diff	0	669
KA	97	19	f	PSYC4802-20142	1.0	Block	exp	50	20140428.115353	same	60	same	1	1085
KA	97	19	f	PSYC4802-20142	1.0	Block	exp	51	20140428.115401	same	60	diff	0	3142
KA	97	19	f	PSYC4802-20142	1.0	Block	exp	52	20140428.115406	same	60	same	1	341
KA	97	19	f	PSYC4802-20142	1.0	Block	exp	53	20140428.115409	same	60	diff	0	423
KA	97	19	f	PSYC4802-20142	1.0	Block	exp	54	20140428.115411	diff	20	same	0	1
KA	97	19	f	PSYC4802-20142	1.0	Block	exp	55	20140428.115413	diff	20	same	0	8362
KA	97	19	f	PSYC4802-20142	1.0	Block	exp	56	20140428.115423	same	20	same	1	4279
KA	97	19	f	PSYC4802-20142	1.0	Block	exp	57	20140428.115430	same	20	same	1	9077
KA	97	19	f	PSYC4802-20142	1.0	Block	exp	58	20140428.115441	same	60	same	1	13166
KA	97	19	f	PSYC4802-20142	1.0	Block	exp	59	20140428.115456	same	100	same	1	9505
KA	97	19	f	PSYC4802-20142	1.0	Block	exp	60	20140428.115507	same	20	same	1	6153
KA	97	19	f	PSYC4802-20142	1.0	Block	exp	61	20140428.115516	same	60	diff	0	4208
KA	97	19	f	PSYC4802-20142	1.0	Block	exp	62	20140428.115522	diff	60	diff	1	9317
KA	97	19	f	PSYC4802-20142	1.0	Block	exp	63	20140428.115533	diff	60	same	0	7630
KA	97	19	f	PSYC4802-20142	1.0	Block	exp	64	20140428.115543	diff	100	diff	1	12224
KA	97	19	f	PSYC4802-20142	1.0	Block	exp	65	20140428.115557	same	20	same	1	24821
KA	97	19	f	PSYC4802-20142	1.0	Block	exp	66	20140428.115624	same	100	same	1	12270
KA	97	19	f	PSYC4802-20142	1.0	Block	exp	67	20140428.115638	diff	100	diff	1	13530
KA	97	19	f	PSYC4802-20142	1.0	Block	exp	68	20140428.115654	diff	60	same	0	13038
KA	97	19	f	PSYC4802-20142	1.0	Block	exp	69	20140428.115709	diff	100	83	-3	11614
KA	97	19	f	PSYC4802-20142	1.0	Block	exp	70	20140428.115722	diff	20	same	0	406
KA	97	19	f	PSYC4802-20142	1.0	Block	exp	71	20140428.115725	diff	20	diff	1	6710
KA	97	19	f	PSYC4802-20142	1.0	Block	exp	72	20140428.115733	diff	20	same	0	5579
KA	97	19	f	PSYC4802-20142	1.0	Block	exp	73	20140428.115741	diff	100	diff	1	2216
KA	97	19	f	PSYC4802-20142	1.0	Block	exp	74	20140428.115745	diff	100	same	0	4120
KA	97	19	f	PSYC4802-20142	1.0	Block	exp	75	20140428.115752	diff	100	same	0	3862
KA	97	19	f	PSYC4802-20142	1.0	Block	exp	76	20140428.115757	same	100	diff	0	658
KA	97	19	f	PSYC4802-20142	1.0	Block	exp	77	20140428.115800	diff	100	diff	1	300
KA	97	19	f	PSYC4802-20142	1.0	Block	exp	78	20140428.115802	diff	60	diff	1	4073
KA	97	19	f	PSYC4802-20142	1.0	Block	exp	79	20140428.115808	diff	20	same	0	1929
KA	97	19	f	PSYC4802-20142	1.0	Block	exp	80	20140428.115812	same	20	same	1	4976
KA	97	19	f	PSYC4802-20142	1.0	Block	exp	81	20140428.115819	diff	60	diff	1	1278
KA	97	19	f	PSYC4802-20142	1.0	Block	exp	82	20140428.115823	diff	20	diff	1	4759
KA	97	19	f	PSYC4802-20142	1.0	Block	exp	83	20140428.115829	diff	60	same	0	3903
KA	97	19	f	PSYC4802-20142	1.0	Block	exp	84	20140428.115835	diff	20	same	0	6733
KA	97	19	f	PSYC4802-20142	1.0	Block	exp	85	20140428.115844	diff	60	diff	1	593
KA	97	19	f	PSYC4802-20142	1.0	Block	exp	86	20140428.115847	diff	100	diff	1	541
KA	97	19	f	PSYC4802-20142	1.0	Block	exp	87	20140428.115849	same	20	88	-3	680
KA	97	19	f	PSYC4802-20142	1.0	Block	exp	88	20140428.115852	diff	20	same	0	1
KA	97	19	f	PSYC4802-20142	1.0	Block	exp	89	20140428.115854	same	20	diff	0	2649
KA	97	19	f	PSYC4802-20142	1.0	Block	exp	90	20140428.115859	same	20	same	1	359
KA	97	19	f	PSYC4802-20142	1.0	Block	exp	91	20140428.115901	same	100	same	1	558
KA	97	19	f	PSYC4802-20142	1.0	Block	exp	92	20140428.115904	same	60	diff	0	3277
KA	97	19	f	PSYC4802-20142	1.0	Block	exp	93	20140428.115909	same	100	diff	0	2005
KA	97	19	f	PSYC4802-20142	1.0	Block	exp	94	20140428.115913	diff	20	same	0	358
KA	97	19	f	PSYC4802-20142	1.0	Block	exp	95	20140428.115916	diff	60	diff	1	399
KA	97	19	f	PSYC4802-20142	1.0	Block	exp	96	20140428.115918	diff	20	same	0	757
KA	97	19	f	PSYC4802-20142	1.0	Block	exp	97	20140428.115921	same	60	diff	0	5228
KA	97	19	f	PSYC4802-20142	1.0	Block	exp	98	20140428.115928	diff	60	diff	1	12405
KA	97	19	f	PSYC4802-20142	1.0	Block	exp	99	20140428.115943	diff	20	same	0	3951
KA	97	19	f	PSYC4802-20142	1.0	Block	exp	100	20140428.115949	diff	100	diff	1	1027
KA	97	19	f	PSYC4802-20142	1.0	Block	exp	101	20140428.120003	same	100	same	1	4659
KA	97	19	f	PSYC4802-20142	1.0	Block	exp	102	20140428.120010	diff	100	diff	1	12744
KA	97	19	f	PSYC4802-20142	1.0	Block	exp	103	20140428.120025	same	20	same	1	4911
KA	97	19	f	PSYC4802-20142	1.0	Block	exp	104	20140428.120032	same	60	diff	0	5925
KA	97	19	f	PSYC4802-20142	1.0	Block	exp	105	20140428.120040	diff	20	diff	1	3816
KA	97	19	f	PSYC4802-20142	1.0	Block	exp	106	20140428.120045	same	20	same	1	4214
KA	97	19	f	PSYC4802-20142	1.0	Block	exp	107	20140428.120052	same	100	same	1	6868
KA	97	19	f	PSYC4802-20142	1.0	Block	exp	108	20140428.120101	same	20	same	1	3933
KA	97	19	f	PSYC4802-20142	1.0	Block	exp	109	20140428.120107	diff	20	diff	1	9803
KA	97	19	f	PSYC4802-20142	1.0	Block	exp	110	20140428.120119	diff	20	diff	1	2309
KA	97	19	f	PSYC4802-20142	1.0	Block	exp	111	20140428.120123	same	100	diff	0	4507
KA	97	19	f	PSYC4802-20142	1.0	Block	exp	112	20140428.120129	same	100	same	1	9499
KA	97	19	f	PSYC4802-20142	1.0	Block	exp	113	20140428.120141	same	100	same	1	6827
KA	97	19	f	PSYC4802-20142	1.0	Block	exp	114	20140428.120150	same	100	same	1	12124
KA	97	19	f	PSYC4802-20142	1.0	Block	exp	115	20140428.120204	diff	100	same	0	15827
KA	97	19	f	PSYC4802-20142	1.0	Block	exp	116	20140428.120222	diff	100	diff	1	17895
KA	97	19	f	PSYC4802-20142	1.0	Block	exp	117	20140428.120242	diff	60	diff	1	10670
KA	97	19	f	PSYC4802-20142	1.0	Block	exp	118	20140428.120255	same	60	same	1	17034
KA	97	19	f	PSYC4802-20142	1.0	Block	exp	119	20140428.120314	diff	60	diff	1	11731
KA	97	19	f	PSYC4802-20142	1.0	Block	exp	120	20140428.120328	same	100	same	1	16295
KA	97	19	f	PSYC4802-20142	1.0	Block	exp	121	20140428.120346	diff	100	diff	1	12393
KA	97	19	f	PSYC4802-20142	1.0	Block	exp	122	20140428.120400	same	100	same	1	20344
KA	97	19	f	PSYC4802-20142	1.0	Block	exp	123	20140428.120423	diff	20	diff	1	8573
KA	97	19	f	PSYC4802-20142	1.0	Block	exp	124	20140428.120433	diff	100	diff	1	8151
KA	97	19	f	PSYC4802-20142	1.0	Block	exp	125	20140428.120444	diff	100	diff	1	8263
KA	97	19	f	PSYC4802-20142	1.0	Block	exp	126	20140428.120454	diff	100	same	0	3453
KA	97	19	f	PSYC4802-20142	1.0	Block	exp	127	20140428.120459	diff	20	diff	1	17157
KA	97	19	f	PSYC4802-20142	1.0	Block	exp	128	20140428.120519	same	60	same	1	4548
KA	97	19	f	PSYC4802-20142	1.0	Block	exp	129	20140428.120525	diff	60	diff	1	7050
KA	97	19	f	PSYC4802-20142	1.0	Block	exp	130	20140428.120534	same	100	same	1	4584
KA	97	19	f	PSYC4802-20142	1.0	Block	exp	131	20140428.120541	same	100	diff	0	3885
KA	97	19	f	PSYC4802-20142	1.0	Block	exp	132	20140428.120547	same	20	same	1	8697
KA	97	19	f	PSYC4802-20142	1.0	Block	exp	133	20140428.120557	same	60	same	1	10688
KA	97	19	f	PSYC4802-20142	1.0	Block	exp	134	20140428.120610	diff	60	diff	1	12463
KA	97	19	f	PSYC4802-20142	1.0	Block	exp	135	20140428.120625	same	20	same	1	7683
KA	97	19	f	PSYC4802-20142	1.0	Block	exp	136	20140428.120635	same	60	diff	0	8743
KA	97	19	f	PSYC4802-20142	1.0	Block	exp	137	20140428.120645	same	60	same	1	1126
KA	97	19	f	PSYC4802-20142	1.0	Block	exp	138	20140428.120649	same	100	same	1	739
KA	97	19	f	PSYC4802-20142	1.0	Block	exp	139	20140428.120651	diff	60	diff	1	277
KA	97	19	f	PSYC4802-20142	1.0	Block	exp	140	20140428.120654	same	60	same	1	5983
KA	97	19	f	PSYC4802-20142	1.0	Block	exp	141	20140428.120702	same	20	same	1	1226
KA	97	19	f	PSYC4802-20142	1.0	Block	exp	142	20140428.120705	diff	60	diff	1	382
KA	97	19	f	PSYC4802-20142	1.0	Block	exp	143	20140428.120708	diff	60	same	0	294
KA	97	19	f	PSYC4802-20142	1.0	Block	exp	144	20140428.120710	same	20	diff	0	768
KA	97	19	f	PSYC4802-20142	1.0	Block	exp	145	20140428.120713	diff	100	same	0	535
KA	97	19	f	PSYC4802-20142	1.0	Block	exp	146	20140428.120715	same	60	same	1	289
KA	97	19	f	PSYC4802-20142	1.0	Block	exp	147	20140428.120718	diff	60	diff	1	324
KA	97	19	f	PSYC4802-20142	1.0	Block	exp	148	20140428.120720	same	20	same	1	687
KA	97	19	f	PSYC4802-20142	1.0	Block	exp	149	20140428.120723	diff	60	same	0	728
KA	97	19	f	PSYC4802-20142	1.0	Block	exp	150	20140428.120726	same	20	same	1	253
