Experimenter	Subject	Age	Sex	Experiment	Version	Block	TrialType	Trial	Timestamp	SameDiff	Rotation	Response	Acc	RT
JJ	228	19	F	PSYC4802-20144	1.0	Block	practice	1	20141013.112001	diff	60	37	-3	6177
JJ	228	19	F	PSYC4802-20144	1.0	Block	practice	2	20141013.112010	same	60	same	1	20752
JJ	228	19	F	PSYC4802-20144	1.0	Block	practice	3	20141013.112033	same	60	same	1	8387
JJ	228	19	F	PSYC4802-20144	1.0	Block	practice	4	20141013.112043	diff	100	diff	1	5716
JJ	228	19	F	PSYC4802-20144	1.0	Block	practice	5	20141013.112051	diff	20	diff	1	4296
JJ	228	19	F	PSYC4802-20144	1.0	Block	practice	6	20141013.112057	diff	100	diff	1	5467
JJ	228	19	F	PSYC4802-20144	1.0	Block	practice	7	20141013.112105	same	60	same	1	5761
JJ	228	19	F	PSYC4802-20144	1.0	Block	practice	8	20141013.112112	same	20	same	1	4136
JJ	228	19	F	PSYC4802-20144	1.0	Block	practice	9	20141013.112119	same	100	diff	0	4521
JJ	228	19	F	PSYC4802-20144	1.0	Block	practice	10	20141013.112125	diff	60	diff	1	9011
JJ	228	19	F	PSYC4802-20144	1.0	Block	practice	11	20141013.112136	same	20	same	1	4406
JJ	228	19	F	PSYC4802-20144	1.0	Block	practice	12	20141013.112143	same	60	same	1	8977
JJ	228	19	F	PSYC4802-20144	1.0	Block	practice	13	20141013.112154	diff	20	diff	1	4276
JJ	228	19	F	PSYC4802-20144	1.0	Block	practice	14	20141013.112200	diff	60	diff	1	5526
JJ	228	19	F	PSYC4802-20144	1.0	Block	practice	15	20141013.112208	same	60	diff	0	4341
JJ	228	19	F	PSYC4802-20144	1.0	Block	practice	16	20141013.112214	diff	100	diff	1	6851
JJ	228	19	F	PSYC4802-20144	1.0	Block	practice	17	20141013.112223	same	20	diff	0	5071
JJ	228	19	F	PSYC4802-20144	1.0	Block	practice	18	20141013.112230	diff	60	diff	1	13116
JJ	228	19	F	PSYC4802-20144	1.0	Block	practice	19	20141013.112245	diff	100	diff	1	1921
JJ	228	19	F	PSYC4802-20144	1.0	Block	practice	20	20141013.112249	diff	100	diff	1	1921
JJ	228	19	F	PSYC4802-20144	1.0	Block	practice	21	20141013.112253	same	100	diff	0	7316
JJ	228	19	F	PSYC4802-20144	1.0	Block	practice	22	20141013.112302	same	20	same	1	4336
JJ	228	19	F	PSYC4802-20144	1.0	Block	practice	23	20141013.112309	same	20	same	1	5241
JJ	228	19	F	PSYC4802-20144	1.0	Block	practice	24	20141013.112316	diff	20	diff	1	4581
JJ	228	19	F	PSYC4802-20144	1.0	Block	practice	25	20141013.112322	same	100	diff	0	3456
JJ	228	19	F	PSYC4802-20144	1.0	Block	practice	26	20141013.112328	same	100	diff	0	4197
JJ	228	19	F	PSYC4802-20144	1.0	Block	practice	27	20141013.112334	diff	20	diff	1	8397
JJ	228	19	F	PSYC4802-20144	1.0	Block	practice	28	20141013.112345	diff	20	same	0	7516
JJ	228	19	F	PSYC4802-20144	1.0	Block	practice	29	20141013.112354	diff	60	diff	1	4791
JJ	228	19	F	PSYC4802-20144	1.0	Block	practice	30	20141013.112401	same	100	diff	0	6201
JJ	228	19	F	PSYC4802-20144	1.0	Block	exp	31	20141013.112409	same	20	same	1	4456
JJ	228	19	F	PSYC4802-20144	1.0	Block	exp	32	20141013.112416	diff	60	same	0	5576
JJ	228	19	F	PSYC4802-20144	1.0	Block	exp	33	20141013.112423	diff	60	diff	1	8001
JJ	228	19	F	PSYC4802-20144	1.0	Block	exp	34	20141013.112433	same	100	same	1	6412
JJ	228	19	F	PSYC4802-20144	1.0	Block	exp	35	20141013.112442	diff	20	diff	1	6021
JJ	228	19	F	PSYC4802-20144	1.0	Block	exp	36	20141013.112450	diff	20	diff	1	7052
JJ	228	19	F	PSYC4802-20144	1.0	Block	exp	37	20141013.112459	same	100	diff	0	6862
JJ	228	19	F	PSYC4802-20144	1.0	Block	exp	38	20141013.112508	diff	100	diff	1	6117
JJ	228	19	F	PSYC4802-20144	1.0	Block	exp	39	20141013.112516	diff	60	diff	1	6162
JJ	228	19	F	PSYC4802-20144	1.0	Block	exp	40	20141013.112524	same	60	diff	0	3017
JJ	228	19	F	PSYC4802-20144	1.0	Block	exp	41	20141013.112529	same	100	same	1	6991
JJ	228	19	F	PSYC4802-20144	1.0	Block	exp	42	20141013.112538	diff	20	diff	1	2956
JJ	228	19	F	PSYC4802-20144	1.0	Block	exp	43	20141013.112543	same	20	same	1	3626
JJ	228	19	F	PSYC4802-20144	1.0	Block	exp	44	20141013.112549	diff	60	diff	1	5216
JJ	228	19	F	PSYC4802-20144	1.0	Block	exp	45	20141013.112556	diff	100	diff	1	6826
JJ	228	19	F	PSYC4802-20144	1.0	Block	exp	46	20141013.112605	diff	100	diff	1	2671
JJ	228	19	F	PSYC4802-20144	1.0	Block	exp	47	20141013.112610	same	100	same	1	2316
JJ	228	19	F	PSYC4802-20144	1.0	Block	exp	48	20141013.112614	diff	60	diff	1	4491
JJ	228	19	F	PSYC4802-20144	1.0	Block	exp	49	20141013.112621	diff	60	diff	1	4916
JJ	228	19	F	PSYC4802-20144	1.0	Block	exp	50	20141013.112628	diff	60	diff	1	1596
JJ	228	19	F	PSYC4802-20144	1.0	Block	exp	51	20141013.112634	diff	20	diff	1	3556
JJ	228	19	F	PSYC4802-20144	1.0	Block	exp	52	20141013.112640	same	20	same	1	1596
JJ	228	19	F	PSYC4802-20144	1.0	Block	exp	53	20141013.112643	same	60	same	1	5182
JJ	228	19	F	PSYC4802-20144	1.0	Block	exp	54	20141013.112651	same	60	diff	0	6286
JJ	228	19	F	PSYC4802-20144	1.0	Block	exp	55	20141013.112659	same	60	diff	0	11906
JJ	228	19	F	PSYC4802-20144	1.0	Block	exp	56	20141013.112713	diff	100	diff	1	5201
JJ	228	19	F	PSYC4802-20144	1.0	Block	exp	57	20141013.112720	same	60	diff	0	12571
JJ	228	19	F	PSYC4802-20144	1.0	Block	exp	58	20141013.112735	diff	60	diff	1	5901
JJ	228	19	F	PSYC4802-20144	1.0	Block	exp	59	20141013.112743	same	100	diff	0	4376
JJ	228	19	F	PSYC4802-20144	1.0	Block	exp	60	20141013.112749	same	60	same	1	5746
JJ	228	19	F	PSYC4802-20144	1.0	Block	exp	61	20141013.112757	diff	20	diff	1	3521
JJ	228	19	F	PSYC4802-20144	1.0	Block	exp	62	20141013.112803	same	100	diff	0	4336
JJ	228	19	F	PSYC4802-20144	1.0	Block	exp	63	20141013.112809	same	20	same	1	2246
JJ	228	19	F	PSYC4802-20144	1.0	Block	exp	64	20141013.112813	diff	100	same	0	5107
JJ	228	19	F	PSYC4802-20144	1.0	Block	exp	65	20141013.112820	diff	60	same	0	3666
JJ	228	19	F	PSYC4802-20144	1.0	Block	exp	66	20141013.112826	same	60	same	1	5386
JJ	228	19	F	PSYC4802-20144	1.0	Block	exp	67	20141013.112834	diff	100	diff	1	4291
JJ	228	19	F	PSYC4802-20144	1.0	Block	exp	68	20141013.112840	diff	60	diff	1	4837
JJ	228	19	F	PSYC4802-20144	1.0	Block	exp	69	20141013.112847	diff	100	diff	1	2896
JJ	228	19	F	PSYC4802-20144	1.0	Block	exp	70	20141013.112852	same	60	same	1	3361
JJ	228	19	F	PSYC4802-20144	1.0	Block	exp	71	20141013.112857	diff	100	diff	1	4316
JJ	228	19	F	PSYC4802-20144	1.0	Block	exp	72	20141013.112903	same	20	same	1	4262
JJ	228	19	F	PSYC4802-20144	1.0	Block	exp	73	20141013.112910	same	100	same	1	4901
JJ	228	19	F	PSYC4802-20144	1.0	Block	exp	74	20141013.112917	same	100	same	1	3851
JJ	228	19	F	PSYC4802-20144	1.0	Block	exp	75	20141013.112923	diff	20	diff	1	9237
JJ	228	19	F	PSYC4802-20144	1.0	Block	exp	76	20141013.112934	diff	20	diff	1	13892
JJ	228	19	F	PSYC4802-20144	1.0	Block	exp	77	20141013.112950	diff	100	same	0	2086
JJ	228	19	F	PSYC4802-20144	1.0	Block	exp	78	20141013.112954	diff	100	diff	1	5577
JJ	228	19	F	PSYC4802-20144	1.0	Block	exp	79	20141013.113001	same	100	diff	0	8986
JJ	228	19	F	PSYC4802-20144	1.0	Block	exp	80	20141013.113013	diff	20	same	0	4101
JJ	228	19	F	PSYC4802-20144	1.0	Block	exp	81	20141013.113019	diff	100	diff	1	11736
JJ	228	19	F	PSYC4802-20144	1.0	Block	exp	82	20141013.113033	diff	60	diff	1	8657
JJ	228	19	F	PSYC4802-20144	1.0	Block	exp	83	20141013.113043	same	60	same	1	3776
JJ	228	19	F	PSYC4802-20144	1.0	Block	exp	84	20141013.113049	same	100	same	1	6117
JJ	228	19	F	PSYC4802-20144	1.0	Block	exp	85	20141013.113057	same	20	same	1	2976
JJ	228	19	F	PSYC4802-20144	1.0	Block	exp	86	20141013.113102	diff	20	diff	1	6141
JJ	228	19	F	PSYC4802-20144	1.0	Block	exp	87	20141013.113111	same	20	same	1	2382
JJ	228	19	F	PSYC4802-20144	1.0	Block	exp	88	20141013.113115	diff	20	same	0	11386
JJ	228	19	F	PSYC4802-20144	1.0	Block	exp	89	20141013.113128	diff	60	diff	1	13737
JJ	228	19	F	PSYC4802-20144	1.0	Block	exp	90	20141013.113144	diff	100	diff	1	10167
JJ	228	19	F	PSYC4802-20144	1.0	Block	exp	91	20141013.113156	diff	60	diff	1	7381
JJ	228	19	F	PSYC4802-20144	1.0	Block	exp	92	20141013.113206	diff	20	diff	1	4507
JJ	228	19	F	PSYC4802-20144	1.0	Block	exp	93	20141013.113213	same	60	same	1	2752
JJ	228	19	F	PSYC4802-20144	1.0	Block	exp	94	20141013.113217	diff	100	same	0	6751
JJ	228	19	F	PSYC4802-20144	1.0	Block	exp	95	20141013.113226	diff	100	diff	1	2936
JJ	228	19	F	PSYC4802-20144	1.0	Block	exp	96	20141013.113231	same	60	same	1	4536
JJ	228	19	F	PSYC4802-20144	1.0	Block	exp	97	20141013.113238	diff	100	diff	1	3332
JJ	228	19	F	PSYC4802-20144	1.0	Block	exp	98	20141013.113243	diff	60	same	0	8336
JJ	228	19	F	PSYC4802-20144	1.0	Block	exp	99	20141013.113254	same	100	same	1	10302
JJ	228	19	F	PSYC4802-20144	1.0	Block	exp	100	20141013.113306	same	60	same	1	7737
JJ	228	19	F	PSYC4802-20144	1.0	Block	exp	101	20141013.113318	diff	100	same	0	7631
JJ	228	19	F	PSYC4802-20144	1.0	Block	exp	102	20141013.113327	diff	60	diff	1	8676
JJ	228	19	F	PSYC4802-20144	1.0	Block	exp	103	20141013.113338	same	100	diff	0	8196
JJ	228	19	F	PSYC4802-20144	1.0	Block	exp	104	20141013.113348	same	60	same	1	4911
JJ	228	19	F	PSYC4802-20144	1.0	Block	exp	105	20141013.113355	same	20	same	1	1791
JJ	228	19	F	PSYC4802-20144	1.0	Block	exp	106	20141013.113359	diff	20	diff	1	7222
JJ	228	19	F	PSYC4802-20144	1.0	Block	exp	107	20141013.113408	same	20	same	1	6501
JJ	228	19	F	PSYC4802-20144	1.0	Block	exp	108	20141013.113417	same	60	same	1	3896
JJ	228	19	F	PSYC4802-20144	1.0	Block	exp	109	20141013.113423	diff	100	diff	1	7596
JJ	228	19	F	PSYC4802-20144	1.0	Block	exp	110	20141013.113433	diff	60	diff	1	4636
JJ	228	19	F	PSYC4802-20144	1.0	Block	exp	111	20141013.113439	same	60	same	1	4281
JJ	228	19	F	PSYC4802-20144	1.0	Block	exp	112	20141013.113446	same	20	same	1	2812
JJ	228	19	F	PSYC4802-20144	1.0	Block	exp	113	20141013.113451	same	60	same	1	6222
JJ	228	19	F	PSYC4802-20144	1.0	Block	exp	114	20141013.113459	diff	60	diff	1	3326
JJ	228	19	F	PSYC4802-20144	1.0	Block	exp	115	20141013.113504	diff	60	diff	1	2436
JJ	228	19	F	PSYC4802-20144	1.0	Block	exp	116	20141013.113509	diff	20	diff	1	5711
JJ	228	19	F	PSYC4802-20144	1.0	Block	exp	117	20141013.113517	diff	20	diff	1	4266
JJ	228	19	F	PSYC4802-20144	1.0	Block	exp	118	20141013.113523	same	20	same	1	2457
JJ	228	19	F	PSYC4802-20144	1.0	Block	exp	119	20141013.113528	same	60	diff	0	4136
JJ	228	19	F	PSYC4802-20144	1.0	Block	exp	120	20141013.113534	same	100	diff	0	5421
JJ	228	19	F	PSYC4802-20144	1.0	Block	exp	121	20141013.113541	diff	20	diff	1	3901
JJ	228	19	F	PSYC4802-20144	1.0	Block	exp	122	20141013.113547	diff	20	same	0	11126
JJ	228	19	F	PSYC4802-20144	1.0	Block	exp	123	20141013.113600	same	100	diff	0	6611
JJ	228	19	F	PSYC4802-20144	1.0	Block	exp	124	20141013.113609	same	20	same	1	2771
JJ	228	19	F	PSYC4802-20144	1.0	Block	exp	125	20141013.113614	diff	20	diff	1	4501
JJ	228	19	F	PSYC4802-20144	1.0	Block	exp	126	20141013.113621	diff	20	diff	1	8877
JJ	228	19	F	PSYC4802-20144	1.0	Block	exp	127	20141013.113631	same	100	same	1	6486
JJ	228	19	F	PSYC4802-20144	1.0	Block	exp	128	20141013.113640	same	60	same	1	10766
JJ	228	19	F	PSYC4802-20144	1.0	Block	exp	129	20141013.113653	diff	20	diff	1	5607
JJ	228	19	F	PSYC4802-20144	1.0	Block	exp	130	20141013.113701	same	20	same	1	1971
JJ	228	19	F	PSYC4802-20144	1.0	Block	exp	131	20141013.113705	diff	60	same	0	4581
JJ	228	19	F	PSYC4802-20144	1.0	Block	exp	132	20141013.113711	same	100	same	1	3206
JJ	228	19	F	PSYC4802-20144	1.0	Block	exp	133	20141013.113717	same	20	same	1	2456
JJ	228	19	F	PSYC4802-20144	1.0	Block	exp	134	20141013.113721	same	20	same	1	3106
JJ	228	19	F	PSYC4802-20144	1.0	Block	exp	135	20141013.113726	same	60	same	1	4032
JJ	228	19	F	PSYC4802-20144	1.0	Block	exp	136	20141013.113732	same	20	same	1	2121
JJ	228	19	F	PSYC4802-20144	1.0	Block	exp	137	20141013.113737	same	100	diff	0	3831
JJ	228	19	F	PSYC4802-20144	1.0	Block	exp	138	20141013.113742	diff	60	diff	1	4516
JJ	228	19	F	PSYC4802-20144	1.0	Block	exp	139	20141013.113749	diff	20	diff	1	4816
JJ	228	19	F	PSYC4802-20144	1.0	Block	exp	140	20141013.113756	same	20	same	1	2141
JJ	228	19	F	PSYC4802-20144	1.0	Block	exp	141	20141013.113800	same	100	same	1	4376
JJ	228	19	F	PSYC4802-20144	1.0	Block	exp	142	20141013.113806	same	20	same	1	2851
JJ	228	19	F	PSYC4802-20144	1.0	Block	exp	143	20141013.113811	same	20	same	1	1856
JJ	228	19	F	PSYC4802-20144	1.0	Block	exp	144	20141013.113815	diff	100	same	0	7837
JJ	228	19	F	PSYC4802-20144	1.0	Block	exp	145	20141013.113825	same	60	same	1	3846
JJ	228	19	F	PSYC4802-20144	1.0	Block	exp	146	20141013.113831	same	100	diff	0	5367
JJ	228	19	F	PSYC4802-20144	1.0	Block	exp	147	20141013.113839	same	20	same	1	5161
JJ	228	19	F	PSYC4802-20144	1.0	Block	exp	148	20141013.113846	diff	100	diff	1	5696
JJ	228	19	F	PSYC4802-20144	1.0	Block	exp	149	20141013.113854	diff	100	diff	1	5221
JJ	228	19	F	PSYC4802-20144	1.0	Block	exp	150	20141013.113901	same	100	same	1	3846
