Experimenter	Subject	Age	Sex	Experiment	Version	Block	TrialType	Trial	Timestamp	SameDiff	Rotation	Response	Acc	RT
jn	126	21	F	PSYC4802-20142	1.0	Block	practice	1	20140502.111722	diff	100	same	0	3968
jn	126	21	F	PSYC4802-20142	1.0	Block	practice	2	20140502.111728	diff	100	same	0	2890
jn	126	21	F	PSYC4802-20142	1.0	Block	practice	3	20140502.111733	same	100	diff	0	6863
jn	126	21	F	PSYC4802-20142	1.0	Block	practice	4	20140502.111742	diff	100	diff	1	5960
jn	126	21	F	PSYC4802-20142	1.0	Block	practice	5	20140502.111750	diff	60	same	0	2298
jn	126	21	F	PSYC4802-20142	1.0	Block	practice	6	20140502.111755	same	20	diff	0	4191
jn	126	21	F	PSYC4802-20142	1.0	Block	practice	7	20140502.111801	same	60	same	1	3939
jn	126	21	F	PSYC4802-20142	1.0	Block	practice	8	20140502.111807	diff	60	diff	1	1630
jn	126	21	F	PSYC4802-20142	1.0	Block	practice	9	20140502.111811	diff	20	diff	1	1554
jn	126	21	F	PSYC4802-20142	1.0	Block	practice	10	20140502.111814	same	60	same	1	1970
jn	126	21	F	PSYC4802-20142	1.0	Block	practice	11	20140502.111818	same	100	diff	0	3827
jn	126	21	F	PSYC4802-20142	1.0	Block	practice	12	20140502.111824	same	20	same	1	1911
jn	126	21	F	PSYC4802-20142	1.0	Block	practice	13	20140502.111828	diff	20	diff	1	1853
jn	126	21	F	PSYC4802-20142	1.0	Block	practice	14	20140502.111832	same	60	same	1	2128
jn	126	21	F	PSYC4802-20142	1.0	Block	practice	15	20140502.111836	diff	60	diff	1	1595
jn	126	21	F	PSYC4802-20142	1.0	Block	practice	16	20140502.111840	same	60	same	1	4706
jn	126	21	F	PSYC4802-20142	1.0	Block	practice	17	20140502.111847	diff	100	diff	1	1302
jn	126	21	F	PSYC4802-20142	1.0	Block	practice	18	20140502.111850	same	20	same	1	2392
jn	126	21	F	PSYC4802-20142	1.0	Block	practice	19	20140502.111854	same	20	same	1	1548
jn	126	21	F	PSYC4802-20142	1.0	Block	practice	20	20140502.111858	same	100	same	1	2539
jn	126	21	F	PSYC4802-20142	1.0	Block	practice	21	20140502.111902	same	60	diff	0	2603
jn	126	21	F	PSYC4802-20142	1.0	Block	practice	22	20140502.111907	same	100	same	1	3476
jn	126	21	F	PSYC4802-20142	1.0	Block	practice	23	20140502.111913	diff	20	diff	1	2310
jn	126	21	F	PSYC4802-20142	1.0	Block	practice	24	20140502.111917	diff	20	diff	1	1618
jn	126	21	F	PSYC4802-20142	1.0	Block	practice	25	20140502.111921	diff	100	diff	1	2954
jn	126	21	F	PSYC4802-20142	1.0	Block	practice	26	20140502.111926	diff	60	diff	1	2356
jn	126	21	F	PSYC4802-20142	1.0	Block	practice	27	20140502.111930	same	100	diff	0	1841
jn	126	21	F	PSYC4802-20142	1.0	Block	practice	28	20140502.111934	diff	60	diff	1	3792
jn	126	21	F	PSYC4802-20142	1.0	Block	practice	29	20140502.111940	same	20	same	1	1489
jn	126	21	F	PSYC4802-20142	1.0	Block	practice	30	20140502.111943	diff	20	diff	1	2427
jn	126	21	F	PSYC4802-20142	1.0	Block	exp	31	20140502.111948	diff	20	diff	1	1519
jn	126	21	F	PSYC4802-20142	1.0	Block	exp	32	20140502.111951	same	20	same	1	4161
jn	126	21	F	PSYC4802-20142	1.0	Block	exp	33	20140502.111957	same	20	same	1	956
jn	126	21	F	PSYC4802-20142	1.0	Block	exp	34	20140502.112000	diff	60	diff	1	921
jn	126	21	F	PSYC4802-20142	1.0	Block	exp	35	20140502.112003	diff	60	diff	1	1578
jn	126	21	F	PSYC4802-20142	1.0	Block	exp	36	20140502.112007	diff	60	diff	1	2274
jn	126	21	F	PSYC4802-20142	1.0	Block	exp	37	20140502.112011	same	60	same	1	1776
jn	126	21	F	PSYC4802-20142	1.0	Block	exp	38	20140502.112015	diff	60	same	0	1360
jn	126	21	F	PSYC4802-20142	1.0	Block	exp	39	20140502.112019	diff	100	diff	1	3962
jn	126	21	F	PSYC4802-20142	1.0	Block	exp	40	20140502.112025	diff	60	diff	1	2199
jn	126	21	F	PSYC4802-20142	1.0	Block	exp	41	20140502.112029	same	100	same	1	2380
jn	126	21	F	PSYC4802-20142	1.0	Block	exp	42	20140502.112033	diff	60	same	0	1407
jn	126	21	F	PSYC4802-20142	1.0	Block	exp	43	20140502.112037	diff	60	diff	1	2269
jn	126	21	F	PSYC4802-20142	1.0	Block	exp	44	20140502.112041	same	20	same	1	1929
jn	126	21	F	PSYC4802-20142	1.0	Block	exp	45	20140502.112045	diff	60	diff	1	3124
jn	126	21	F	PSYC4802-20142	1.0	Block	exp	46	20140502.112050	same	100	same	1	3248
jn	126	21	F	PSYC4802-20142	1.0	Block	exp	47	20140502.112055	diff	100	diff	1	2239
jn	126	21	F	PSYC4802-20142	1.0	Block	exp	48	20140502.112100	same	60	same	1	1777
jn	126	21	F	PSYC4802-20142	1.0	Block	exp	49	20140502.112103	diff	100	same	0	1566
jn	126	21	F	PSYC4802-20142	1.0	Block	exp	50	20140502.112107	diff	100	diff	1	1126
jn	126	21	F	PSYC4802-20142	1.0	Block	exp	51	20140502.112116	diff	100	diff	1	4021
jn	126	21	F	PSYC4802-20142	1.0	Block	exp	52	20140502.112123	diff	20	same	0	1420
jn	126	21	F	PSYC4802-20142	1.0	Block	exp	53	20140502.112126	same	60	same	1	2221
jn	126	21	F	PSYC4802-20142	1.0	Block	exp	54	20140502.112130	same	20	same	1	1425
jn	126	21	F	PSYC4802-20142	1.0	Block	exp	55	20140502.112134	diff	20	diff	1	1917
jn	126	21	F	PSYC4802-20142	1.0	Block	exp	56	20140502.112138	same	100	diff	0	2087
jn	126	21	F	PSYC4802-20142	1.0	Block	exp	57	20140502.112142	diff	60	diff	1	2398
jn	126	21	F	PSYC4802-20142	1.0	Block	exp	58	20140502.112146	diff	20	diff	1	1226
jn	126	21	F	PSYC4802-20142	1.0	Block	exp	59	20140502.112149	same	60	same	1	2110
jn	126	21	F	PSYC4802-20142	1.0	Block	exp	60	20140502.112154	same	60	same	1	1788
jn	126	21	F	PSYC4802-20142	1.0	Block	exp	61	20140502.112157	diff	20	diff	1	2802
jn	126	21	F	PSYC4802-20142	1.0	Block	exp	62	20140502.112202	diff	20	diff	1	3681
jn	126	21	F	PSYC4802-20142	1.0	Block	exp	63	20140502.112208	diff	100	same	0	1196
jn	126	21	F	PSYC4802-20142	1.0	Block	exp	64	20140502.112211	same	20	same	1	1835
jn	126	21	F	PSYC4802-20142	1.0	Block	exp	65	20140502.112215	same	60	same	1	1331
jn	126	21	F	PSYC4802-20142	1.0	Block	exp	66	20140502.112218	diff	20	diff	1	2679
jn	126	21	F	PSYC4802-20142	1.0	Block	exp	67	20140502.112223	diff	60	diff	1	2509
jn	126	21	F	PSYC4802-20142	1.0	Block	exp	68	20140502.112228	same	60	diff	0	2117
jn	126	21	F	PSYC4802-20142	1.0	Block	exp	69	20140502.112232	diff	60	diff	1	1630
jn	126	21	F	PSYC4802-20142	1.0	Block	exp	70	20140502.112235	same	20	same	1	2304
jn	126	21	F	PSYC4802-20142	1.0	Block	exp	71	20140502.112240	same	20	same	1	1519
jn	126	21	F	PSYC4802-20142	1.0	Block	exp	72	20140502.112243	diff	20	diff	1	1665
jn	126	21	F	PSYC4802-20142	1.0	Block	exp	73	20140502.112247	same	60	same	1	1612
jn	126	21	F	PSYC4802-20142	1.0	Block	exp	74	20140502.112250	same	60	same	1	1636
jn	126	21	F	PSYC4802-20142	1.0	Block	exp	75	20140502.112254	diff	100	same	0	1718
jn	126	21	F	PSYC4802-20142	1.0	Block	exp	76	20140502.112258	diff	20	same	0	2468
jn	126	21	F	PSYC4802-20142	1.0	Block	exp	77	20140502.112302	same	100	diff	0	3710
jn	126	21	F	PSYC4802-20142	1.0	Block	exp	78	20140502.112308	diff	100	same	0	6276
jn	126	21	F	PSYC4802-20142	1.0	Block	exp	79	20140502.112316	same	100	same	1	5192
jn	126	21	F	PSYC4802-20142	1.0	Block	exp	80	20140502.112324	diff	20	same	0	4501
jn	126	21	F	PSYC4802-20142	1.0	Block	exp	81	20140502.112330	same	100	same	1	3798
jn	126	21	F	PSYC4802-20142	1.0	Block	exp	82	20140502.112336	same	100	same	1	4771
jn	126	21	F	PSYC4802-20142	1.0	Block	exp	83	20140502.112343	same	60	diff	0	2626
jn	126	21	F	PSYC4802-20142	1.0	Block	exp	84	20140502.112347	same	100	same	1	4542
jn	126	21	F	PSYC4802-20142	1.0	Block	exp	85	20140502.112354	diff	100	diff	1	2515
jn	126	21	F	PSYC4802-20142	1.0	Block	exp	86	20140502.112358	same	60	same	1	2257
jn	126	21	F	PSYC4802-20142	1.0	Block	exp	87	20140502.112403	diff	100	diff	1	1958
jn	126	21	F	PSYC4802-20142	1.0	Block	exp	88	20140502.112407	same	60	same	1	1841
jn	126	21	F	PSYC4802-20142	1.0	Block	exp	89	20140502.112410	same	20	diff	0	1941
jn	126	21	F	PSYC4802-20142	1.0	Block	exp	90	20140502.112414	diff	60	diff	1	3675
jn	126	21	F	PSYC4802-20142	1.0	Block	exp	91	20140502.112420	same	100	same	1	2426
jn	126	21	F	PSYC4802-20142	1.0	Block	exp	92	20140502.112425	diff	100	diff	1	1770
jn	126	21	F	PSYC4802-20142	1.0	Block	exp	93	20140502.112428	diff	20	diff	1	2233
jn	126	21	F	PSYC4802-20142	1.0	Block	exp	94	20140502.112433	same	20	same	1	1589
jn	126	21	F	PSYC4802-20142	1.0	Block	exp	95	20140502.112436	diff	60	diff	1	1531
jn	126	21	F	PSYC4802-20142	1.0	Block	exp	96	20140502.112440	same	100	diff	0	1419
jn	126	21	F	PSYC4802-20142	1.0	Block	exp	97	20140502.112443	diff	100	diff	1	2339
jn	126	21	F	PSYC4802-20142	1.0	Block	exp	98	20140502.112448	same	60	same	1	1999
jn	126	21	F	PSYC4802-20142	1.0	Block	exp	99	20140502.112452	diff	60	same	0	1484
jn	126	21	F	PSYC4802-20142	1.0	Block	exp	100	20140502.112455	same	60	diff	0	4384
jn	126	21	F	PSYC4802-20142	1.0	Block	exp	101	20140502.112510	diff	60	diff	1	2122
jn	126	21	F	PSYC4802-20142	1.0	Block	exp	102	20140502.112514	same	20	same	1	1706
jn	126	21	F	PSYC4802-20142	1.0	Block	exp	103	20140502.112518	same	20	same	1	1419
jn	126	21	F	PSYC4802-20142	1.0	Block	exp	104	20140502.112521	diff	20	diff	1	3001
jn	126	21	F	PSYC4802-20142	1.0	Block	exp	105	20140502.112526	diff	20	diff	1	1566
jn	126	21	F	PSYC4802-20142	1.0	Block	exp	106	20140502.112530	diff	100	same	0	4173
jn	126	21	F	PSYC4802-20142	1.0	Block	exp	107	20140502.112536	diff	100	same	0	3335
jn	126	21	F	PSYC4802-20142	1.0	Block	exp	108	20140502.112541	same	20	same	1	1671
jn	126	21	F	PSYC4802-20142	1.0	Block	exp	109	20140502.112545	diff	20	diff	1	3587
jn	126	21	F	PSYC4802-20142	1.0	Block	exp	110	20140502.112551	same	60	same	1	3130
jn	126	21	F	PSYC4802-20142	1.0	Block	exp	111	20140502.112556	diff	20	diff	1	3264
jn	126	21	F	PSYC4802-20142	1.0	Block	exp	112	20140502.112601	same	100	same	1	3447
jn	126	21	F	PSYC4802-20142	1.0	Block	exp	113	20140502.112607	same	100	same	1	3604
jn	126	21	F	PSYC4802-20142	1.0	Block	exp	114	20140502.112612	same	100	same	1	2315
jn	126	21	F	PSYC4802-20142	1.0	Block	exp	115	20140502.112617	same	20	same	1	2192
jn	126	21	F	PSYC4802-20142	1.0	Block	exp	116	20140502.112621	diff	20	diff	1	3657
jn	126	21	F	PSYC4802-20142	1.0	Block	exp	117	20140502.112626	same	60	same	1	3821
jn	126	21	F	PSYC4802-20142	1.0	Block	exp	118	20140502.112632	diff	60	diff	1	3400
jn	126	21	F	PSYC4802-20142	1.0	Block	exp	119	20140502.112638	same	20	same	1	2398
jn	126	21	F	PSYC4802-20142	1.0	Block	exp	120	20140502.112642	diff	60	diff	1	1940
jn	126	21	F	PSYC4802-20142	1.0	Block	exp	121	20140502.112646	same	100	same	1	2579
jn	126	21	F	PSYC4802-20142	1.0	Block	exp	122	20140502.112651	same	60	diff	0	3399
jn	126	21	F	PSYC4802-20142	1.0	Block	exp	123	20140502.112656	diff	20	same	0	2996
jn	126	21	F	PSYC4802-20142	1.0	Block	exp	124	20140502.112701	same	100	same	1	3903
jn	126	21	F	PSYC4802-20142	1.0	Block	exp	125	20140502.112707	same	100	diff	0	1853
jn	126	21	F	PSYC4802-20142	1.0	Block	exp	126	20140502.112711	same	60	same	1	2514
jn	126	21	F	PSYC4802-20142	1.0	Block	exp	127	20140502.112716	same	20	same	1	1290
jn	126	21	F	PSYC4802-20142	1.0	Block	exp	128	20140502.112719	same	60	diff	0	1460
jn	126	21	F	PSYC4802-20142	1.0	Block	exp	129	20140502.112722	diff	100	diff	1	2884
jn	126	21	F	PSYC4802-20142	1.0	Block	exp	130	20140502.112727	diff	20	diff	1	1666
jn	126	21	F	PSYC4802-20142	1.0	Block	exp	131	20140502.112731	diff	20	same	0	2175
jn	126	21	F	PSYC4802-20142	1.0	Block	exp	132	20140502.112735	same	20	same	1	2292
jn	126	21	F	PSYC4802-20142	1.0	Block	exp	133	20140502.112739	diff	60	diff	1	2627
jn	126	21	F	PSYC4802-20142	1.0	Block	exp	134	20140502.112744	diff	100	same	0	1373
jn	126	21	F	PSYC4802-20142	1.0	Block	exp	135	20140502.112748	diff	100	diff	1	2702
jn	126	21	F	PSYC4802-20142	1.0	Block	exp	136	20140502.112752	diff	100	same	0	1512
jn	126	21	F	PSYC4802-20142	1.0	Block	exp	137	20140502.112756	same	100	same	1	3195
jn	126	21	F	PSYC4802-20142	1.0	Block	exp	138	20140502.112801	diff	100	diff	1	2755
jn	126	21	F	PSYC4802-20142	1.0	Block	exp	139	20140502.112806	diff	100	same	0	5913
jn	126	21	F	PSYC4802-20142	1.0	Block	exp	140	20140502.112814	same	100	same	1	4150
jn	126	21	F	PSYC4802-20142	1.0	Block	exp	141	20140502.112820	diff	60	diff	1	1864
jn	126	21	F	PSYC4802-20142	1.0	Block	exp	142	20140502.112824	diff	60	same	0	1900
jn	126	21	F	PSYC4802-20142	1.0	Block	exp	143	20140502.112828	same	20	same	1	1443
jn	126	21	F	PSYC4802-20142	1.0	Block	exp	144	20140502.112831	same	20	same	1	2404
jn	126	21	F	PSYC4802-20142	1.0	Block	exp	145	20140502.112836	diff	20	diff	1	1560
jn	126	21	F	PSYC4802-20142	1.0	Block	exp	146	20140502.112839	same	20	same	1	2433
jn	126	21	F	PSYC4802-20142	1.0	Block	exp	147	20140502.112844	same	100	same	1	2304
jn	126	21	F	PSYC4802-20142	1.0	Block	exp	148	20140502.112848	same	60	same	1	2831
jn	126	21	F	PSYC4802-20142	1.0	Block	exp	149	20140502.112853	same	20	same	1	2081
jn	126	21	F	PSYC4802-20142	1.0	Block	exp	150	20140502.112857	same	100	diff	0	1729
