Experimenter	Subject	Age	Sex	Experiment	Version	Block	TrialType	Trial	Timestamp	SameDiff	Rotation	Response	Acc	RT
jn	142	19	M	PSYC4802-20142	1.0	Block	practice	1	20140507.104839	diff	60	diff	1	4102
jn	142	19	M	PSYC4802-20142	1.0	Block	practice	2	20140507.104846	diff	20	diff	1	2397
jn	142	19	M	PSYC4802-20142	1.0	Block	practice	3	20140507.104850	same	100	same	1	3007
jn	142	19	M	PSYC4802-20142	1.0	Block	practice	4	20140507.104855	same	60	same	1	3113
jn	142	19	M	PSYC4802-20142	1.0	Block	practice	5	20140507.104900	same	100	same	1	4636
jn	142	19	M	PSYC4802-20142	1.0	Block	practice	6	20140507.104907	diff	100	diff	1	2457
jn	142	19	M	PSYC4802-20142	1.0	Block	practice	7	20140507.104911	diff	100	diff	1	5016
jn	142	19	M	PSYC4802-20142	1.0	Block	practice	8	20140507.104918	same	100	same	1	2058
jn	142	19	M	PSYC4802-20142	1.0	Block	practice	9	20140507.104922	diff	100	same	0	2919
jn	142	19	M	PSYC4802-20142	1.0	Block	practice	10	20140507.104927	same	20	same	1	4706
jn	142	19	M	PSYC4802-20142	1.0	Block	practice	11	20140507.104934	diff	60	diff	1	2714
jn	142	19	M	PSYC4802-20142	1.0	Block	practice	12	20140507.104939	same	20	same	1	3077
jn	142	19	M	PSYC4802-20142	1.0	Block	practice	13	20140507.104944	diff	20	diff	1	2861
jn	142	19	M	PSYC4802-20142	1.0	Block	practice	14	20140507.104949	same	100	same	1	3522
jn	142	19	M	PSYC4802-20142	1.0	Block	practice	15	20140507.104955	diff	20	diff	1	2515
jn	142	19	M	PSYC4802-20142	1.0	Block	practice	16	20140507.104959	diff	100	same	0	2104
jn	142	19	M	PSYC4802-20142	1.0	Block	practice	17	20140507.105003	same	20	same	1	2456
jn	142	19	M	PSYC4802-20142	1.0	Block	practice	18	20140507.105008	diff	100	diff	1	2368
jn	142	19	M	PSYC4802-20142	1.0	Block	practice	19	20140507.105012	diff	60	diff	1	2023
jn	142	19	M	PSYC4802-20142	1.0	Block	practice	20	20140507.105016	diff	20	diff	1	2286
jn	142	19	M	PSYC4802-20142	1.0	Block	practice	21	20140507.105021	same	60	same	1	1636
jn	142	19	M	PSYC4802-20142	1.0	Block	practice	22	20140507.105024	same	60	same	1	3176
jn	142	19	M	PSYC4802-20142	1.0	Block	practice	23	20140507.105029	diff	60	same	0	3734
jn	142	19	M	PSYC4802-20142	1.0	Block	practice	24	20140507.105035	diff	20	diff	1	2843
jn	142	19	M	PSYC4802-20142	1.0	Block	practice	25	20140507.105040	same	100	same	1	2450
jn	142	19	M	PSYC4802-20142	1.0	Block	practice	26	20140507.105045	same	60	same	1	2843
jn	142	19	M	PSYC4802-20142	1.0	Block	practice	27	20140507.105049	same	60	same	1	2948
jn	142	19	M	PSYC4802-20142	1.0	Block	practice	28	20140507.105054	same	20	same	1	3347
jn	142	19	M	PSYC4802-20142	1.0	Block	practice	29	20140507.105100	same	20	same	1	3821
jn	142	19	M	PSYC4802-20142	1.0	Block	practice	30	20140507.105106	diff	60	diff	1	1642
jn	142	19	M	PSYC4802-20142	1.0	Block	exp	31	20140507.105109	diff	60	diff	1	3365
jn	142	19	M	PSYC4802-20142	1.0	Block	exp	32	20140507.105115	same	20	same	1	1976
jn	142	19	M	PSYC4802-20142	1.0	Block	exp	33	20140507.105119	diff	60	diff	1	1531
jn	142	19	M	PSYC4802-20142	1.0	Block	exp	34	20140507.105122	diff	60	same	0	1677
jn	142	19	M	PSYC4802-20142	1.0	Block	exp	35	20140507.105126	diff	20	diff	1	1853
jn	142	19	M	PSYC4802-20142	1.0	Block	exp	36	20140507.105130	diff	60	diff	1	1519
jn	142	19	M	PSYC4802-20142	1.0	Block	exp	37	20140507.105134	same	60	same	1	3188
jn	142	19	M	PSYC4802-20142	1.0	Block	exp	38	20140507.105139	same	20	same	1	1852
jn	142	19	M	PSYC4802-20142	1.0	Block	exp	39	20140507.105143	same	20	same	1	2263
jn	142	19	M	PSYC4802-20142	1.0	Block	exp	40	20140507.105147	same	100	same	1	3112
jn	142	19	M	PSYC4802-20142	1.0	Block	exp	41	20140507.105152	same	60	same	1	2298
jn	142	19	M	PSYC4802-20142	1.0	Block	exp	42	20140507.105157	same	20	same	1	1466
jn	142	19	M	PSYC4802-20142	1.0	Block	exp	43	20140507.105200	same	100	same	1	2896
jn	142	19	M	PSYC4802-20142	1.0	Block	exp	44	20140507.105205	same	100	same	1	2737
jn	142	19	M	PSYC4802-20142	1.0	Block	exp	45	20140507.105210	diff	100	diff	1	1372
jn	142	19	M	PSYC4802-20142	1.0	Block	exp	46	20140507.105213	same	100	same	1	4559
jn	142	19	M	PSYC4802-20142	1.0	Block	exp	47	20140507.105220	diff	20	diff	1	1607
jn	142	19	M	PSYC4802-20142	1.0	Block	exp	48	20140507.105224	diff	60	same	0	3177
jn	142	19	M	PSYC4802-20142	1.0	Block	exp	49	20140507.105229	same	20	same	1	3980
jn	142	19	M	PSYC4802-20142	1.0	Block	exp	50	20140507.105235	same	20	same	1	3218
jn	142	19	M	PSYC4802-20142	1.0	Block	exp	51	20140507.105328	same	60	same	1	1472
jn	142	19	M	PSYC4802-20142	1.0	Block	exp	52	20140507.105331	diff	100	same	0	1648
jn	142	19	M	PSYC4802-20142	1.0	Block	exp	53	20140507.105335	diff	20	diff	1	1578
jn	142	19	M	PSYC4802-20142	1.0	Block	exp	54	20140507.105338	diff	60	same	0	909
jn	142	19	M	PSYC4802-20142	1.0	Block	exp	55	20140507.105341	same	20	diff	0	3235
jn	142	19	M	PSYC4802-20142	1.0	Block	exp	56	20140507.105347	same	20	same	1	1782
jn	142	19	M	PSYC4802-20142	1.0	Block	exp	57	20140507.105350	diff	60	diff	1	2732
jn	142	19	M	PSYC4802-20142	1.0	Block	exp	58	20140507.105355	diff	60	diff	1	1407
jn	142	19	M	PSYC4802-20142	1.0	Block	exp	59	20140507.105359	diff	20	diff	1	1079
jn	142	19	M	PSYC4802-20142	1.0	Block	exp	60	20140507.105402	diff	100	same	0	1044
jn	142	19	M	PSYC4802-20142	1.0	Block	exp	61	20140507.105405	diff	20	diff	1	1747
jn	142	19	M	PSYC4802-20142	1.0	Block	exp	62	20140507.105409	same	100	same	1	2649
jn	142	19	M	PSYC4802-20142	1.0	Block	exp	63	20140507.105414	diff	60	diff	1	1431
jn	142	19	M	PSYC4802-20142	1.0	Block	exp	64	20140507.105417	diff	100	diff	1	2409
jn	142	19	M	PSYC4802-20142	1.0	Block	exp	65	20140507.105421	diff	60	same	0	2040
jn	142	19	M	PSYC4802-20142	1.0	Block	exp	66	20140507.105425	same	60	same	1	3845
jn	142	19	M	PSYC4802-20142	1.0	Block	exp	67	20140507.105431	same	100	same	1	1993
jn	142	19	M	PSYC4802-20142	1.0	Block	exp	68	20140507.105435	same	60	same	1	2568
jn	142	19	M	PSYC4802-20142	1.0	Block	exp	69	20140507.105440	diff	20	diff	1	1185
jn	142	19	M	PSYC4802-20142	1.0	Block	exp	70	20140507.105443	diff	100	diff	1	1970
jn	142	19	M	PSYC4802-20142	1.0	Block	exp	71	20140507.105447	same	60	same	1	1853
jn	142	19	M	PSYC4802-20142	1.0	Block	exp	72	20140507.105451	diff	100	same	0	1847
jn	142	19	M	PSYC4802-20142	1.0	Block	exp	73	20140507.105455	diff	60	diff	1	2046
jn	142	19	M	PSYC4802-20142	1.0	Block	exp	74	20140507.105459	same	20	same	1	1448
jn	142	19	M	PSYC4802-20142	1.0	Block	exp	75	20140507.105503	same	100	same	1	1941
jn	142	19	M	PSYC4802-20142	1.0	Block	exp	76	20140507.105507	same	60	same	1	2427
jn	142	19	M	PSYC4802-20142	1.0	Block	exp	77	20140507.105511	diff	100	diff	1	2790
jn	142	19	M	PSYC4802-20142	1.0	Block	exp	78	20140507.105516	same	60	same	1	1671
jn	142	19	M	PSYC4802-20142	1.0	Block	exp	79	20140507.105520	same	60	same	1	1624
jn	142	19	M	PSYC4802-20142	1.0	Block	exp	80	20140507.105524	diff	20	diff	1	1266
jn	142	19	M	PSYC4802-20142	1.0	Block	exp	81	20140507.105527	same	20	same	1	1284
jn	142	19	M	PSYC4802-20142	1.0	Block	exp	82	20140507.105530	same	100	same	1	1852
jn	142	19	M	PSYC4802-20142	1.0	Block	exp	83	20140507.105534	diff	20	diff	1	985
jn	142	19	M	PSYC4802-20142	1.0	Block	exp	84	20140507.105537	diff	100	same	0	1987
jn	142	19	M	PSYC4802-20142	1.0	Block	exp	85	20140507.105541	diff	60	diff	1	1952
jn	142	19	M	PSYC4802-20142	1.0	Block	exp	86	20140507.105545	same	60	same	1	1735
jn	142	19	M	PSYC4802-20142	1.0	Block	exp	87	20140507.105549	diff	20	diff	1	1993
jn	142	19	M	PSYC4802-20142	1.0	Block	exp	88	20140507.105553	same	100	same	1	1729
jn	142	19	M	PSYC4802-20142	1.0	Block	exp	89	20140507.105557	same	60	diff	0	927
jn	142	19	M	PSYC4802-20142	1.0	Block	exp	90	20140507.105600	same	20	same	1	1225
jn	142	19	M	PSYC4802-20142	1.0	Block	exp	91	20140507.105603	diff	100	diff	1	1161
jn	142	19	M	PSYC4802-20142	1.0	Block	exp	92	20140507.105607	diff	60	same	0	1542
jn	142	19	M	PSYC4802-20142	1.0	Block	exp	93	20140507.105610	same	60	same	1	1255
jn	142	19	M	PSYC4802-20142	1.0	Block	exp	94	20140507.105613	same	20	same	1	1249
jn	142	19	M	PSYC4802-20142	1.0	Block	exp	95	20140507.105617	same	20	same	1	1506
jn	142	19	M	PSYC4802-20142	1.0	Block	exp	96	20140507.105620	diff	20	same	0	1642
jn	142	19	M	PSYC4802-20142	1.0	Block	exp	97	20140507.105624	diff	20	diff	1	1431
jn	142	19	M	PSYC4802-20142	1.0	Block	exp	98	20140507.105627	same	20	same	1	1946
jn	142	19	M	PSYC4802-20142	1.0	Block	exp	99	20140507.105631	diff	100	same	0	2779
jn	142	19	M	PSYC4802-20142	1.0	Block	exp	100	20140507.105636	diff	100	same	0	1876
jn	142	19	M	PSYC4802-20142	1.0	Block	exp	101	20140507.105742	same	100	same	1	347
jn	142	19	M	PSYC4802-20142	1.0	Block	exp	102	20140507.105745	same	20	same	1	921
jn	142	19	M	PSYC4802-20142	1.0	Block	exp	103	20140507.105747	diff	20	diff	1	2111
jn	142	19	M	PSYC4802-20142	1.0	Block	exp	104	20140507.105752	diff	60	diff	1	1454
jn	142	19	M	PSYC4802-20142	1.0	Block	exp	105	20140507.105755	same	100	same	1	1354
jn	142	19	M	PSYC4802-20142	1.0	Block	exp	106	20140507.105758	same	60	same	1	1625
jn	142	19	M	PSYC4802-20142	1.0	Block	exp	107	20140507.105802	same	20	same	1	910
jn	142	19	M	PSYC4802-20142	1.0	Block	exp	108	20140507.105805	same	60	same	1	1232
jn	142	19	M	PSYC4802-20142	1.0	Block	exp	109	20140507.105808	diff	100	diff	1	1507
jn	142	19	M	PSYC4802-20142	1.0	Block	exp	110	20140507.105812	diff	100	diff	1	1080
jn	142	19	M	PSYC4802-20142	1.0	Block	exp	111	20140507.105815	diff	100	same	0	1449
jn	142	19	M	PSYC4802-20142	1.0	Block	exp	112	20140507.105818	same	20	same	1	1103
jn	142	19	M	PSYC4802-20142	1.0	Block	exp	113	20140507.105821	same	100	same	1	1161
jn	142	19	M	PSYC4802-20142	1.0	Block	exp	114	20140507.105825	diff	100	same	0	1026
jn	142	19	M	PSYC4802-20142	1.0	Block	exp	115	20140507.105828	diff	60	diff	1	1038
jn	142	19	M	PSYC4802-20142	1.0	Block	exp	116	20140507.105831	diff	100	diff	1	1307
jn	142	19	M	PSYC4802-20142	1.0	Block	exp	117	20140507.105834	same	100	same	1	1179
jn	142	19	M	PSYC4802-20142	1.0	Block	exp	118	20140507.105837	diff	20	diff	1	2005
jn	142	19	M	PSYC4802-20142	1.0	Block	exp	119	20140507.105841	same	60	same	1	1999
jn	142	19	M	PSYC4802-20142	1.0	Block	exp	120	20140507.105845	diff	20	same	0	1425
jn	142	19	M	PSYC4802-20142	1.0	Block	exp	121	20140507.105849	same	100	same	1	2521
jn	142	19	M	PSYC4802-20142	1.0	Block	exp	122	20140507.105853	diff	100	diff	1	1413
jn	142	19	M	PSYC4802-20142	1.0	Block	exp	123	20140507.105857	diff	60	diff	1	1366
jn	142	19	M	PSYC4802-20142	1.0	Block	exp	124	20140507.105900	same	20	same	1	1331
jn	142	19	M	PSYC4802-20142	1.0	Block	exp	125	20140507.105904	diff	100	diff	1	1026
jn	142	19	M	PSYC4802-20142	1.0	Block	exp	126	20140507.105907	same	100	same	1	1554
jn	142	19	M	PSYC4802-20142	1.0	Block	exp	127	20140507.105910	diff	100	diff	1	1279
jn	142	19	M	PSYC4802-20142	1.0	Block	exp	128	20140507.105913	same	60	same	1	1829
jn	142	19	M	PSYC4802-20142	1.0	Block	exp	129	20140507.105917	diff	20	diff	1	915
jn	142	19	M	PSYC4802-20142	1.0	Block	exp	130	20140507.105920	same	60	same	1	1074
jn	142	19	M	PSYC4802-20142	1.0	Block	exp	131	20140507.105923	same	20	diff	0	815
jn	142	19	M	PSYC4802-20142	1.0	Block	exp	132	20140507.105926	same	60	same	1	1477
jn	142	19	M	PSYC4802-20142	1.0	Block	exp	133	20140507.105930	diff	60	diff	1	1501
jn	142	19	M	PSYC4802-20142	1.0	Block	exp	134	20140507.105933	same	100	diff	0	1056
jn	142	19	M	PSYC4802-20142	1.0	Block	exp	135	20140507.105936	same	60	same	1	1044
jn	142	19	M	PSYC4802-20142	1.0	Block	exp	136	20140507.105939	same	100	same	1	1249
jn	142	19	M	PSYC4802-20142	1.0	Block	exp	137	20140507.105943	diff	100	same	0	1185
jn	142	19	M	PSYC4802-20142	1.0	Block	exp	138	20140507.105946	same	20	same	1	1636
jn	142	19	M	PSYC4802-20142	1.0	Block	exp	139	20140507.105950	same	100	same	1	1396
jn	142	19	M	PSYC4802-20142	1.0	Block	exp	140	20140507.105953	diff	60	diff	1	1055
jn	142	19	M	PSYC4802-20142	1.0	Block	exp	141	20140507.105956	diff	60	same	0	1443
jn	142	19	M	PSYC4802-20142	1.0	Block	exp	142	20140507.110000	same	100	same	1	1495
jn	142	19	M	PSYC4802-20142	1.0	Block	exp	143	20140507.110003	diff	20	diff	1	3435
jn	142	19	M	PSYC4802-20142	1.0	Block	exp	144	20140507.110009	same	60	same	1	1983
jn	142	19	M	PSYC4802-20142	1.0	Block	exp	145	20140507.110013	diff	20	diff	1	1168
jn	142	19	M	PSYC4802-20142	1.0	Block	exp	146	20140507.110016	diff	20	diff	1	1050
jn	142	19	M	PSYC4802-20142	1.0	Block	exp	147	20140507.110019	diff	20	diff	1	2052
jn	142	19	M	PSYC4802-20142	1.0	Block	exp	148	20140507.110023	diff	60	diff	1	1091
jn	142	19	M	PSYC4802-20142	1.0	Block	exp	149	20140507.110026	diff	20	diff	1	1372
jn	142	19	M	PSYC4802-20142	1.0	Block	exp	150	20140507.110030	same	100	same	1	1214
