Experimenter	Subject	Age	Sex	Experiment	Version	Block	TrialType	Trial	Timestamp	SameDiff	Rotation	Response	Acc	RT
MB	243	21	F	PSYC4802-20144	1.0	Block	practice	1	20141015.114745	diff	20	diff	1	18476
MB	243	21	F	PSYC4802-20144	1.0	Block	practice	2	20141015.114806	same	20	diff	0	12057
MB	243	21	F	PSYC4802-20144	1.0	Block	practice	3	20141015.114820	same	60	same	1	12066
MB	243	21	F	PSYC4802-20144	1.0	Block	practice	4	20141015.114834	same	20	same	1	7542
MB	243	21	F	PSYC4802-20144	1.0	Block	practice	5	20141015.114843	diff	60	diff	1	6246
MB	243	21	F	PSYC4802-20144	1.0	Block	practice	6	20141015.114852	same	60	diff	0	6432
MB	243	21	F	PSYC4802-20144	1.0	Block	practice	7	20141015.114900	diff	20	same	0	1081
MB	243	21	F	PSYC4802-20144	1.0	Block	practice	8	20141015.114903	same	100	diff	0	1061
MB	243	21	F	PSYC4802-20144	1.0	Block	practice	9	20141015.114906	same	20	same	1	286
MB	243	21	F	PSYC4802-20144	1.0	Block	practice	10	20141015.114909	diff	100	same	0	466
MB	243	21	F	PSYC4802-20144	1.0	Block	practice	11	20141015.114911	same	100	diff	0	701
MB	243	21	F	PSYC4802-20144	1.0	Block	practice	12	20141015.114914	diff	60	same	0	15297
MB	243	21	F	PSYC4802-20144	1.0	Block	practice	13	20141015.114931	diff	20	diff	1	17632
MB	243	21	F	PSYC4802-20144	1.0	Block	practice	14	20141015.114951	diff	100	diff	1	5051
MB	243	21	F	PSYC4802-20144	1.0	Block	practice	15	20141015.114958	same	60	diff	0	10371
MB	243	21	F	PSYC4802-20144	1.0	Block	practice	16	20141015.115010	diff	20	same	0	30083
MB	243	21	F	PSYC4802-20144	1.0	Block	practice	17	20141015.115042	diff	100	diff	1	8311
MB	243	21	F	PSYC4802-20144	1.0	Block	practice	18	20141015.115053	diff	100	same	0	16337
MB	243	21	F	PSYC4802-20144	1.0	Block	practice	19	20141015.115111	diff	100	same	0	46003
MB	243	21	F	PSYC4802-20144	1.0	Block	practice	20	20141015.115159	same	100	same	1	28987
MB	243	21	F	PSYC4802-20144	1.0	Block	practice	21	20141015.115230	same	20	same	1	24757
MB	243	21	F	PSYC4802-20144	1.0	Block	practice	22	20141015.115257	diff	60	diff	1	5581
MB	243	21	F	PSYC4802-20144	1.0	Block	practice	23	20141015.115304	same	60	same	1	5871
MB	243	21	F	PSYC4802-20144	1.0	Block	practice	24	20141015.115312	same	100	same	1	7572
MB	243	21	F	PSYC4802-20144	1.0	Block	practice	25	20141015.115322	same	60	same	1	6327
MB	243	21	F	PSYC4802-20144	1.0	Block	practice	26	20141015.115330	diff	20	diff	1	6891
MB	243	21	F	PSYC4802-20144	1.0	Block	practice	27	20141015.115339	same	20	same	1	21913
MB	243	21	F	PSYC4802-20144	1.0	Block	practice	28	20141015.115403	diff	60	diff	1	8626
MB	243	21	F	PSYC4802-20144	1.0	Block	practice	29	20141015.115413	same	100	same	1	9162
MB	243	21	F	PSYC4802-20144	1.0	Block	practice	30	20141015.115425	diff	60	diff	1	9062
MB	243	21	F	PSYC4802-20144	1.0	Block	exp	31	20141015.115436	diff	100	diff	1	4762
MB	243	21	F	PSYC4802-20144	1.0	Block	exp	32	20141015.115442	diff	60	same	0	4401
MB	243	21	F	PSYC4802-20144	1.0	Block	exp	33	20141015.115449	diff	60	diff	1	36462
MB	243	21	F	PSYC4802-20144	1.0	Block	exp	34	20141015.115527	same	20	same	1	7251
MB	243	21	F	PSYC4802-20144	1.0	Block	exp	35	20141015.115536	same	60	same	1	9956
MB	243	21	F	PSYC4802-20144	1.0	Block	exp	36	20141015.115548	same	100	same	1	9576
MB	243	21	F	PSYC4802-20144	1.0	Block	exp	37	20141015.115600	diff	20	diff	1	3811
MB	243	21	F	PSYC4802-20144	1.0	Block	exp	38	20141015.115606	diff	100	same	0	7256
MB	243	21	F	PSYC4802-20144	1.0	Block	exp	39	20141015.115615	same	100	diff	0	10137
MB	243	21	F	PSYC4802-20144	1.0	Block	exp	40	20141015.115627	diff	20	diff	1	7596
MB	243	21	F	PSYC4802-20144	1.0	Block	exp	41	20141015.115637	same	60	same	1	1341
MB	243	21	F	PSYC4802-20144	1.0	Block	exp	42	20141015.115640	diff	60	same	0	4001
MB	243	21	F	PSYC4802-20144	1.0	Block	exp	43	20141015.115646	diff	60	same	0	686
MB	243	21	F	PSYC4802-20144	1.0	Block	exp	44	20141015.115649	same	100	diff	0	326
MB	243	21	F	PSYC4802-20144	1.0	Block	exp	45	20141015.115652	diff	100	diff	1	7496
MB	243	21	F	PSYC4802-20144	1.0	Block	exp	46	20141015.115701	same	100	same	1	8446
MB	243	21	F	PSYC4802-20144	1.0	Block	exp	47	20141015.115711	same	20	same	1	7086
MB	243	21	F	PSYC4802-20144	1.0	Block	exp	48	20141015.115721	same	20	same	1	4546
MB	243	21	F	PSYC4802-20144	1.0	Block	exp	49	20141015.115727	diff	20	diff	1	8586
MB	243	21	F	PSYC4802-20144	1.0	Block	exp	50	20141015.115738	diff	100	diff	1	12711
MB	243	21	F	PSYC4802-20144	1.0	Block	exp	51	20141015.115818	same	60	same	1	7542
MB	243	21	F	PSYC4802-20144	1.0	Block	exp	52	20141015.115828	diff	20	diff	1	12276
MB	243	21	F	PSYC4802-20144	1.0	Block	exp	53	20141015.115842	same	20	same	1	4701
MB	243	21	F	PSYC4802-20144	1.0	Block	exp	54	20141015.115849	diff	20	same	0	7012
MB	243	21	F	PSYC4802-20144	1.0	Block	exp	55	20141015.115858	diff	60	diff	1	3361
MB	243	21	F	PSYC4802-20144	1.0	Block	exp	56	20141015.115903	diff	20	same	0	14282
MB	243	21	F	PSYC4802-20144	1.0	Block	exp	57	20141015.115920	same	20	same	1	4436
MB	243	21	F	PSYC4802-20144	1.0	Block	exp	58	20141015.115926	diff	20	diff	1	3306
MB	243	21	F	PSYC4802-20144	1.0	Block	exp	59	20141015.115931	same	60	same	1	7761
MB	243	21	F	PSYC4802-20144	1.0	Block	exp	60	20141015.115941	same	20	same	1	8006
MB	243	21	F	PSYC4802-20144	1.0	Block	exp	61	20141015.115951	same	60	diff	0	1771
MB	243	21	F	PSYC4802-20144	1.0	Block	exp	62	20141015.115955	diff	60	diff	1	3546
MB	243	21	F	PSYC4802-20144	1.0	Block	exp	63	20141015.120001	diff	100	same	0	5847
MB	243	21	F	PSYC4802-20144	1.0	Block	exp	64	20141015.120009	same	100	same	1	9036
MB	243	21	F	PSYC4802-20144	1.0	Block	exp	65	20141015.120020	same	100	same	1	3922
MB	243	21	F	PSYC4802-20144	1.0	Block	exp	66	20141015.120026	diff	100	diff	1	5301
MB	243	21	F	PSYC4802-20144	1.0	Block	exp	67	20141015.120033	same	20	same	1	3616
MB	243	21	F	PSYC4802-20144	1.0	Block	exp	68	20141015.120039	same	60	same	1	3076
MB	243	21	F	PSYC4802-20144	1.0	Block	exp	69	20141015.120044	same	100	same	1	3052
MB	243	21	F	PSYC4802-20144	1.0	Block	exp	70	20141015.120049	same	100	diff	0	5412
MB	243	21	F	PSYC4802-20144	1.0	Block	exp	71	20141015.120057	same	20	same	1	3286
MB	243	21	F	PSYC4802-20144	1.0	Block	exp	72	20141015.120102	same	60	same	1	8802
MB	243	21	F	PSYC4802-20144	1.0	Block	exp	73	20141015.120113	diff	100	diff	1	6221
MB	243	21	F	PSYC4802-20144	1.0	Block	exp	74	20141015.120121	same	20	same	1	4576
MB	243	21	F	PSYC4802-20144	1.0	Block	exp	75	20141015.120128	same	60	same	1	3117
MB	243	21	F	PSYC4802-20144	1.0	Block	exp	76	20141015.120133	diff	20	diff	1	3382
MB	243	21	F	PSYC4802-20144	1.0	Block	exp	77	20141015.120138	diff	100	diff	1	6337
MB	243	21	F	PSYC4802-20144	1.0	Block	exp	78	20141015.120147	diff	20	diff	1	11187
MB	243	21	F	PSYC4802-20144	1.0	Block	exp	79	20141015.120200	same	20	same	1	4806
MB	243	21	F	PSYC4802-20144	1.0	Block	exp	80	20141015.120207	same	60	same	1	4436
MB	243	21	F	PSYC4802-20144	1.0	Block	exp	81	20141015.120213	same	100	same	1	6826
MB	243	21	F	PSYC4802-20144	1.0	Block	exp	82	20141015.120222	diff	100	diff	1	6142
MB	243	21	F	PSYC4802-20144	1.0	Block	exp	83	20141015.120230	same	60	same	1	5186
MB	243	21	F	PSYC4802-20144	1.0	Block	exp	84	20141015.120238	diff	20	diff	1	4556
MB	243	21	F	PSYC4802-20144	1.0	Block	exp	85	20141015.120244	diff	100	same	0	3846
MB	243	21	F	PSYC4802-20144	1.0	Block	exp	86	20141015.120250	diff	100	same	0	6286
MB	243	21	F	PSYC4802-20144	1.0	Block	exp	87	20141015.120259	same	60	same	1	5317
MB	243	21	F	PSYC4802-20144	1.0	Block	exp	88	20141015.120306	diff	60	diff	1	13111
MB	243	21	F	PSYC4802-20144	1.0	Block	exp	89	20141015.120321	diff	60	diff	1	6836
MB	243	21	F	PSYC4802-20144	1.0	Block	exp	90	20141015.120330	diff	100	diff	1	5721
MB	243	21	F	PSYC4802-20144	1.0	Block	exp	91	20141015.120338	same	60	same	1	3901
MB	243	21	F	PSYC4802-20144	1.0	Block	exp	92	20141015.120344	diff	60	diff	1	6206
MB	243	21	F	PSYC4802-20144	1.0	Block	exp	93	20141015.120352	diff	100	diff	1	4062
MB	243	21	F	PSYC4802-20144	1.0	Block	exp	94	20141015.120358	diff	60	diff	1	5421
MB	243	21	F	PSYC4802-20144	1.0	Block	exp	95	20141015.120406	diff	20	diff	1	4261
MB	243	21	F	PSYC4802-20144	1.0	Block	exp	96	20141015.120412	diff	60	same	0	9931
MB	243	21	F	PSYC4802-20144	1.0	Block	exp	97	20141015.120424	same	100	same	1	4146
MB	243	21	F	PSYC4802-20144	1.0	Block	exp	98	20141015.120430	same	60	diff	0	5627
MB	243	21	F	PSYC4802-20144	1.0	Block	exp	99	20141015.120438	same	60	same	1	3026
MB	243	21	F	PSYC4802-20144	1.0	Block	exp	100	20141015.120443	diff	60	diff	1	4166
MB	243	21	F	PSYC4802-20144	1.0	Block	exp	101	20141015.120525	diff	60	diff	1	17767
MB	243	21	F	PSYC4802-20144	1.0	Block	exp	102	20141015.120545	diff	20	diff	1	9271
MB	243	21	F	PSYC4802-20144	1.0	Block	exp	103	20141015.120556	diff	20	diff	1	12527
MB	243	21	F	PSYC4802-20144	1.0	Block	exp	104	20141015.120611	diff	100	diff	1	6012
MB	243	21	F	PSYC4802-20144	1.0	Block	exp	105	20141015.120619	diff	100	diff	1	2936
MB	243	21	F	PSYC4802-20144	1.0	Block	exp	106	20141015.120624	same	20	diff	0	3856
MB	243	21	F	PSYC4802-20144	1.0	Block	exp	107	20141015.120630	diff	100	same	0	3991
MB	243	21	F	PSYC4802-20144	1.0	Block	exp	108	20141015.120636	diff	20	same	0	9361
MB	243	21	F	PSYC4802-20144	1.0	Block	exp	109	20141015.120647	same	100	diff	0	381
MB	243	21	F	PSYC4802-20144	1.0	Block	exp	110	20141015.120650	diff	60	same	0	356
MB	243	21	F	PSYC4802-20144	1.0	Block	exp	111	20141015.120652	same	20	diff	0	1
MB	243	21	F	PSYC4802-20144	1.0	Block	exp	112	20141015.120654	same	60	diff	0	271
MB	243	21	F	PSYC4802-20144	1.0	Block	exp	113	20141015.120656	same	20	diff	0	316
MB	243	21	F	PSYC4802-20144	1.0	Block	exp	114	20141015.120659	diff	20	same	0	316
MB	243	21	F	PSYC4802-20144	1.0	Block	exp	115	20141015.120701	diff	100	diff	1	8371
MB	243	21	F	PSYC4802-20144	1.0	Block	exp	116	20141015.120711	same	100	diff	0	7527
MB	243	21	F	PSYC4802-20144	1.0	Block	exp	117	20141015.120721	diff	60	diff	1	6711
MB	243	21	F	PSYC4802-20144	1.0	Block	exp	118	20141015.120730	same	60	same	1	9016
MB	243	21	F	PSYC4802-20144	1.0	Block	exp	119	20141015.120741	diff	60	diff	1	7082
MB	243	21	F	PSYC4802-20144	1.0	Block	exp	120	20141015.120750	diff	100	diff	1	6086
MB	243	21	F	PSYC4802-20144	1.0	Block	exp	121	20141015.120758	same	20	same	1	3137
MB	243	21	F	PSYC4802-20144	1.0	Block	exp	122	20141015.120803	same	100	diff	0	3812
MB	243	21	F	PSYC4802-20144	1.0	Block	exp	123	20141015.120809	same	60	same	1	3887
MB	243	21	F	PSYC4802-20144	1.0	Block	exp	124	20141015.120815	same	60	same	1	3816
MB	243	21	F	PSYC4802-20144	1.0	Block	exp	125	20141015.120821	same	100	diff	0	3392
MB	243	21	F	PSYC4802-20144	1.0	Block	exp	126	20141015.120826	same	60	diff	0	4337
MB	243	21	F	PSYC4802-20144	1.0	Block	exp	127	20141015.120832	same	20	same	1	3095
MB	243	21	F	PSYC4802-20144	1.0	Block	exp	128	20141015.120840	diff	100	same	0	7986
MB	243	21	F	PSYC4802-20144	1.0	Block	exp	129	20141015.120850	diff	60	diff	1	5976
MB	243	21	F	PSYC4802-20144	1.0	Block	exp	130	20141015.120858	same	100	diff	0	6586
MB	243	21	F	PSYC4802-20144	1.0	Block	exp	131	20141015.120907	same	100	same	1	4861
MB	243	21	F	PSYC4802-20144	1.0	Block	exp	132	20141015.120914	same	60	same	1	3627
MB	243	21	F	PSYC4802-20144	1.0	Block	exp	133	20141015.120920	same	100	same	1	6082
MB	243	21	F	PSYC4802-20144	1.0	Block	exp	134	20141015.120928	diff	100	diff	1	7076
MB	243	21	F	PSYC4802-20144	1.0	Block	exp	135	20141015.120937	diff	60	diff	1	6611
MB	243	21	F	PSYC4802-20144	1.0	Block	exp	136	20141015.120945	diff	20	diff	1	7346
MB	243	21	F	PSYC4802-20144	1.0	Block	exp	137	20141015.120955	same	100	same	1	4221
MB	243	21	F	PSYC4802-20144	1.0	Block	exp	138	20141015.121001	diff	60	diff	1	5736
MB	243	21	F	PSYC4802-20144	1.0	Block	exp	139	20141015.121009	same	20	same	1	8792
MB	243	21	F	PSYC4802-20144	1.0	Block	exp	140	20141015.121019	same	20	same	1	4881
MB	243	21	F	PSYC4802-20144	1.0	Block	exp	141	20141015.121026	same	100	same	1	12776
MB	243	21	F	PSYC4802-20144	1.0	Block	exp	142	20141015.121041	diff	20	same	0	5076
MB	243	21	F	PSYC4802-20144	1.0	Block	exp	143	20141015.121048	diff	20	same	0	8576
MB	243	21	F	PSYC4802-20144	1.0	Block	exp	144	20141015.121059	diff	60	same	0	5662
MB	243	21	F	PSYC4802-20144	1.0	Block	exp	145	20141015.121107	same	20	diff	0	1291
MB	243	21	F	PSYC4802-20144	1.0	Block	exp	146	20141015.121110	same	100	same	1	7796
MB	243	21	F	PSYC4802-20144	1.0	Block	exp	147	20141015.121120	same	20	same	1	19897
MB	243	21	F	PSYC4802-20144	1.0	Block	exp	148	20141015.121142	same	20	same	1	5595
MB	243	21	F	PSYC4802-20144	1.0	Block	exp	149	20141015.121149	diff	20	diff	1	7391
MB	243	21	F	PSYC4802-20144	1.0	Block	exp	150	20141015.121159	diff	20	diff	1	9102
