Experimenter	Subject	Age	Sex	Experiment	Version	Block	TrialType	Trial	Timestamp	SameDiff	Rotation	Response	Acc	RT
PRB	79	22	m	PSYC4802-20142	1.0	Block	practice	1	20140528.105220	diff	20	diff	1	9089
PRB	79	22	m	PSYC4802-20142	1.0	Block	practice	2	20140528.105231	same	100	diff	0	7630
PRB	79	22	m	PSYC4802-20142	1.0	Block	practice	3	20140528.105241	same	100	diff	0	10266
PRB	79	22	m	PSYC4802-20142	1.0	Block	practice	4	20140528.105253	diff	60	same	0	4548
PRB	79	22	m	PSYC4802-20142	1.0	Block	practice	5	20140528.105300	same	100	diff	0	14017
PRB	79	22	m	PSYC4802-20142	1.0	Block	practice	6	20140528.105316	same	100	diff	0	8438
PRB	79	22	m	PSYC4802-20142	1.0	Block	practice	7	20140528.105327	diff	100	diff	1	18751
PRB	79	22	m	PSYC4802-20142	1.0	Block	practice	8	20140528.105347	same	60	diff	0	10753
PRB	79	22	m	PSYC4802-20142	1.0	Block	practice	9	20140528.105400	diff	60	diff	1	6446
PRB	79	22	m	PSYC4802-20142	1.0	Block	practice	10	20140528.105409	diff	60	diff	1	6030
PRB	79	22	m	PSYC4802-20142	1.0	Block	practice	11	20140528.105417	same	20	same	1	3335
PRB	79	22	m	PSYC4802-20142	1.0	Block	practice	12	20140528.105422	diff	20	diff	1	10009
PRB	79	22	m	PSYC4802-20142	1.0	Block	practice	13	20140528.105434	diff	20	diff	1	3957
PRB	79	22	m	PSYC4802-20142	1.0	Block	practice	14	20140528.105440	same	60	same	1	6974
PRB	79	22	m	PSYC4802-20142	1.0	Block	practice	15	20140528.105449	same	20	same	1	3558
PRB	79	22	m	PSYC4802-20142	1.0	Block	practice	16	20140528.105455	diff	20	same	0	10430
PRB	79	22	m	PSYC4802-20142	1.0	Block	practice	17	20140528.105507	same	60	diff	0	7179
PRB	79	22	m	PSYC4802-20142	1.0	Block	practice	18	20140528.105517	diff	100	diff	1	5228
PRB	79	22	m	PSYC4802-20142	1.0	Block	practice	19	20140528.105524	same	20	same	1	5245
PRB	79	22	m	PSYC4802-20142	1.0	Block	practice	20	20140528.105531	diff	20	same	0	9534
PRB	79	22	m	PSYC4802-20142	1.0	Block	practice	21	20140528.105543	diff	60	diff	1	9581
PRB	79	22	m	PSYC4802-20142	1.0	Block	practice	22	20140528.105554	diff	60	diff	1	14602
PRB	79	22	m	PSYC4802-20142	1.0	Block	practice	23	20140528.105611	same	60	same	1	4202
PRB	79	22	m	PSYC4802-20142	1.0	Block	practice	24	20140528.105617	same	100	diff	0	7138
PRB	79	22	m	PSYC4802-20142	1.0	Block	practice	25	20140528.105626	diff	100	diff	1	11691
PRB	79	22	m	PSYC4802-20142	1.0	Block	practice	26	20140528.105640	same	20	same	1	9147
PRB	79	22	m	PSYC4802-20142	1.0	Block	practice	27	20140528.105651	same	60	same	1	5204
PRB	79	22	m	PSYC4802-20142	1.0	Block	practice	28	20140528.105659	diff	100	diff	1	8268
PRB	79	22	m	PSYC4802-20142	1.0	Block	practice	29	20140528.105709	same	20	diff	0	4062
PRB	79	22	m	PSYC4802-20142	1.0	Block	practice	30	20140528.105715	diff	100	diff	1	10266
PRB	79	22	m	PSYC4802-20142	1.0	Block	exp	31	20140528.105727	same	100	same	1	20930
PRB	79	22	m	PSYC4802-20142	1.0	Block	exp	32	20140528.105750	diff	60	same	0	9926
PRB	79	22	m	PSYC4802-20142	1.0	Block	exp	33	20140528.105802	diff	20	diff	1	9088
PRB	79	22	m	PSYC4802-20142	1.0	Block	exp	34	20140528.105813	diff	100	diff	1	5485
PRB	79	22	m	PSYC4802-20142	1.0	Block	exp	35	20140528.105821	diff	20	same	0	5755
PRB	79	22	m	PSYC4802-20142	1.0	Block	exp	36	20140528.105829	diff	20	diff	1	13958
PRB	79	22	m	PSYC4802-20142	1.0	Block	exp	37	20140528.105845	same	100	same	1	7741
PRB	79	22	m	PSYC4802-20142	1.0	Block	exp	38	20140528.105854	diff	20	diff	1	11198
PRB	79	22	m	PSYC4802-20142	1.0	Block	exp	39	20140528.105908	diff	60	diff	1	5473
PRB	79	22	m	PSYC4802-20142	1.0	Block	exp	40	20140528.105915	diff	60	diff	1	4624
PRB	79	22	m	PSYC4802-20142	1.0	Block	exp	41	20140528.105922	diff	100	diff	1	8105
PRB	79	22	m	PSYC4802-20142	1.0	Block	exp	42	20140528.105932	diff	60	diff	1	9516
PRB	79	22	m	PSYC4802-20142	1.0	Block	exp	43	20140528.105943	diff	20	diff	1	5163
PRB	79	22	m	PSYC4802-20142	1.0	Block	exp	44	20140528.105950	diff	100	diff	1	7454
PRB	79	22	m	PSYC4802-20142	1.0	Block	exp	45	20140528.110000	diff	100	diff	1	7665
PRB	79	22	m	PSYC4802-20142	1.0	Block	exp	46	20140528.110010	same	100	same	1	8427
PRB	79	22	m	PSYC4802-20142	1.0	Block	exp	47	20140528.110020	same	60	same	1	3926
PRB	79	22	m	PSYC4802-20142	1.0	Block	exp	48	20140528.110026	diff	20	diff	1	3657
PRB	79	22	m	PSYC4802-20142	1.0	Block	exp	49	20140528.110032	diff	100	diff	1	6108
PRB	79	22	m	PSYC4802-20142	1.0	Block	exp	50	20140528.110040	same	20	same	1	4829
PRB	79	22	m	PSYC4802-20142	1.0	Block	exp	51	20140528.110050	same	100	same	1	4032
PRB	79	22	m	PSYC4802-20142	1.0	Block	exp	52	20140528.110056	same	100	diff	0	4970
PRB	79	22	m	PSYC4802-20142	1.0	Block	exp	53	20140528.110103	diff	100	same	0	10442
PRB	79	22	m	PSYC4802-20142	1.0	Block	exp	54	20140528.110115	same	20	same	1	6077
PRB	79	22	m	PSYC4802-20142	1.0	Block	exp	55	20140528.110124	diff	20	diff	1	8035
PRB	79	22	m	PSYC4802-20142	1.0	Block	exp	56	20140528.110134	diff	20	diff	1	10126
PRB	79	22	m	PSYC4802-20142	1.0	Block	exp	57	20140528.110146	diff	20	same	0	6141
PRB	79	22	m	PSYC4802-20142	1.0	Block	exp	58	20140528.110154	same	60	same	1	5965
PRB	79	22	m	PSYC4802-20142	1.0	Block	exp	59	20140528.110202	diff	100	diff	1	5479
PRB	79	22	m	PSYC4802-20142	1.0	Block	exp	60	20140528.110209	same	100	diff	0	4647
PRB	79	22	m	PSYC4802-20142	1.0	Block	exp	61	20140528.110216	same	20	same	1	6681
PRB	79	22	m	PSYC4802-20142	1.0	Block	exp	62	20140528.110225	same	60	same	1	4847
PRB	79	22	m	PSYC4802-20142	1.0	Block	exp	63	20140528.110232	diff	20	same	0	6827
PRB	79	22	m	PSYC4802-20142	1.0	Block	exp	64	20140528.110240	same	20	diff	0	8011
PRB	79	22	m	PSYC4802-20142	1.0	Block	exp	65	20140528.110250	diff	100	diff	1	7378
PRB	79	22	m	PSYC4802-20142	1.0	Block	exp	66	20140528.110300	same	20	same	1	3792
PRB	79	22	m	PSYC4802-20142	1.0	Block	exp	67	20140528.110306	same	100	same	1	3136
PRB	79	22	m	PSYC4802-20142	1.0	Block	exp	68	20140528.110311	same	20	same	1	3862
PRB	79	22	m	PSYC4802-20142	1.0	Block	exp	69	20140528.110317	same	100	same	1	5761
PRB	79	22	m	PSYC4802-20142	1.0	Block	exp	70	20140528.110324	same	60	same	1	4812
PRB	79	22	m	PSYC4802-20142	1.0	Block	exp	71	20140528.110331	same	100	diff	0	5603
PRB	79	22	m	PSYC4802-20142	1.0	Block	exp	72	20140528.110339	same	20	same	1	5591
PRB	79	22	m	PSYC4802-20142	1.0	Block	exp	73	20140528.110347	diff	60	same	0	7800
PRB	79	22	m	PSYC4802-20142	1.0	Block	exp	74	20140528.110356	diff	20	same	0	4747
PRB	79	22	m	PSYC4802-20142	1.0	Block	exp	75	20140528.110403	diff	60	diff	1	4238
PRB	79	22	m	PSYC4802-20142	1.0	Block	exp	76	20140528.110409	diff	60	same	0	3505
PRB	79	22	m	PSYC4802-20142	1.0	Block	exp	77	20140528.110415	same	60	same	1	9364
PRB	79	22	m	PSYC4802-20142	1.0	Block	exp	78	20140528.110426	same	20	same	1	3985
PRB	79	22	m	PSYC4802-20142	1.0	Block	exp	79	20140528.110432	diff	20	diff	1	8081
PRB	79	22	m	PSYC4802-20142	1.0	Block	exp	80	20140528.110442	same	60	same	1	4390
PRB	79	22	m	PSYC4802-20142	1.0	Block	exp	81	20140528.110449	same	100	same	1	5825
PRB	79	22	m	PSYC4802-20142	1.0	Block	exp	82	20140528.110457	diff	60	diff	1	7618
PRB	79	22	m	PSYC4802-20142	1.0	Block	exp	83	20140528.110506	diff	100	same	0	4284
PRB	79	22	m	PSYC4802-20142	1.0	Block	exp	84	20140528.110512	same	20	same	1	5356
PRB	79	22	m	PSYC4802-20142	1.0	Block	exp	85	20140528.110520	diff	60	diff	1	6036
PRB	79	22	m	PSYC4802-20142	1.0	Block	exp	86	20140528.110528	same	100	diff	0	8204
PRB	79	22	m	PSYC4802-20142	1.0	Block	exp	87	20140528.110538	same	60	same	1	5280
PRB	79	22	m	PSYC4802-20142	1.0	Block	exp	88	20140528.110545	same	20	same	1	3809
PRB	79	22	m	PSYC4802-20142	1.0	Block	exp	89	20140528.110551	same	20	same	1	3558
PRB	79	22	m	PSYC4802-20142	1.0	Block	exp	90	20140528.110557	same	60	same	1	3206
PRB	79	22	m	PSYC4802-20142	1.0	Block	exp	91	20140528.110602	same	20	same	1	4126
PRB	79	22	m	PSYC4802-20142	1.0	Block	exp	92	20140528.110608	diff	60	diff	1	7272
PRB	79	22	m	PSYC4802-20142	1.0	Block	exp	93	20140528.110618	diff	60	same	0	5491
PRB	79	22	m	PSYC4802-20142	1.0	Block	exp	94	20140528.110625	diff	60	diff	1	7237
PRB	79	22	m	PSYC4802-20142	1.0	Block	exp	95	20140528.110634	diff	20	diff	1	5409
PRB	79	22	m	PSYC4802-20142	1.0	Block	exp	96	20140528.110642	diff	100	diff	1	5942
PRB	79	22	m	PSYC4802-20142	1.0	Block	exp	97	20140528.110650	diff	20	diff	1	4753
PRB	79	22	m	PSYC4802-20142	1.0	Block	exp	98	20140528.110657	same	60	same	1	5081
PRB	79	22	m	PSYC4802-20142	1.0	Block	exp	99	20140528.110704	diff	100	diff	1	3217
PRB	79	22	m	PSYC4802-20142	1.0	Block	exp	100	20140528.110709	same	100	diff	0	7882
PRB	79	22	m	PSYC4802-20142	1.0	Block	exp	101	20140528.110721	diff	100	same	0	1858
PRB	79	22	m	PSYC4802-20142	1.0	Block	exp	102	20140528.110725	same	60	diff	0	3927
PRB	79	22	m	PSYC4802-20142	1.0	Block	exp	103	20140528.110731	diff	60	diff	1	4296
PRB	79	22	m	PSYC4802-20142	1.0	Block	exp	104	20140528.110737	diff	100	diff	1	3288
PRB	79	22	m	PSYC4802-20142	1.0	Block	exp	105	20140528.110743	diff	60	diff	1	1618
PRB	79	22	m	PSYC4802-20142	1.0	Block	exp	106	20140528.110746	same	100	diff	0	6715
PRB	79	22	m	PSYC4802-20142	1.0	Block	exp	107	20140528.110755	same	20	same	1	2925
PRB	79	22	m	PSYC4802-20142	1.0	Block	exp	108	20140528.110800	diff	20	diff	1	5538
PRB	79	22	m	PSYC4802-20142	1.0	Block	exp	109	20140528.110808	diff	100	diff	1	8415
PRB	79	22	m	PSYC4802-20142	1.0	Block	exp	110	20140528.110818	diff	20	same	0	3634
PRB	79	22	m	PSYC4802-20142	1.0	Block	exp	111	20140528.110824	same	20	same	1	6294
PRB	79	22	m	PSYC4802-20142	1.0	Block	exp	112	20140528.110832	same	100	diff	0	6476
PRB	79	22	m	PSYC4802-20142	1.0	Block	exp	113	20140528.110841	same	20	same	1	3435
PRB	79	22	m	PSYC4802-20142	1.0	Block	exp	114	20140528.110846	diff	20	diff	1	2696
PRB	79	22	m	PSYC4802-20142	1.0	Block	exp	115	20140528.110851	diff	100	diff	1	3429
PRB	79	22	m	PSYC4802-20142	1.0	Block	exp	116	20140528.110856	same	100	same	1	5227
PRB	79	22	m	PSYC4802-20142	1.0	Block	exp	117	20140528.110904	same	60	diff	0	3440
PRB	79	22	m	PSYC4802-20142	1.0	Block	exp	118	20140528.110909	same	60	same	1	3540
PRB	79	22	m	PSYC4802-20142	1.0	Block	exp	119	20140528.110915	diff	60	diff	1	8016
PRB	79	22	m	PSYC4802-20142	1.0	Block	exp	120	20140528.110925	same	60	same	1	5473
PRB	79	22	m	PSYC4802-20142	1.0	Block	exp	121	20140528.110932	same	20	diff	0	2931
PRB	79	22	m	PSYC4802-20142	1.0	Block	exp	122	20140528.110937	same	60	same	1	3745
PRB	79	22	m	PSYC4802-20142	1.0	Block	exp	123	20140528.110943	same	60	diff	0	3652
PRB	79	22	m	PSYC4802-20142	1.0	Block	exp	124	20140528.110949	diff	60	diff	1	5649
PRB	79	22	m	PSYC4802-20142	1.0	Block	exp	125	20140528.110956	diff	60	diff	1	1431
PRB	79	22	m	PSYC4802-20142	1.0	Block	exp	126	20140528.111000	same	60	same	1	780
PRB	79	22	m	PSYC4802-20142	1.0	Block	exp	127	20140528.111002	diff	100	same	0	312
PRB	79	22	m	PSYC4802-20142	1.0	Block	exp	128	20140528.111005	same	20	same	1	1442
PRB	79	22	m	PSYC4802-20142	1.0	Block	exp	129	20140528.111008	diff	20	diff	1	2351
PRB	79	22	m	PSYC4802-20142	1.0	Block	exp	130	20140528.111013	same	100	same	1	1829
PRB	79	22	m	PSYC4802-20142	1.0	Block	exp	131	20140528.111016	same	20	same	1	259
PRB	79	22	m	PSYC4802-20142	1.0	Block	exp	132	20140528.111019	diff	100	diff	1	241
PRB	79	22	m	PSYC4802-20142	1.0	Block	exp	133	20140528.111021	same	60	diff	0	276
PRB	79	22	m	PSYC4802-20142	1.0	Block	exp	134	20140528.111023	diff	20	same	0	259
PRB	79	22	m	PSYC4802-20142	1.0	Block	exp	135	20140528.111025	same	100	same	1	1
PRB	79	22	m	PSYC4802-20142	1.0	Block	exp	136	20140528.111027	same	60	same	1	394
PRB	79	22	m	PSYC4802-20142	1.0	Block	exp	137	20140528.111030	diff	100	same	0	253
PRB	79	22	m	PSYC4802-20142	1.0	Block	exp	138	20140528.111032	same	60	diff	0	300
PRB	79	22	m	PSYC4802-20142	1.0	Block	exp	139	20140528.111034	same	20	same	1	1777
PRB	79	22	m	PSYC4802-20142	1.0	Block	exp	140	20140528.111038	diff	20	diff	1	1566
PRB	79	22	m	PSYC4802-20142	1.0	Block	exp	141	20140528.111042	diff	60	same	0	270
PRB	79	22	m	PSYC4802-20142	1.0	Block	exp	142	20140528.111044	same	100	diff	0	382
PRB	79	22	m	PSYC4802-20142	1.0	Block	exp	143	20140528.111046	diff	60	diff	1	1126
PRB	79	22	m	PSYC4802-20142	1.0	Block	exp	144	20140528.111049	same	100	diff	0	259
PRB	79	22	m	PSYC4802-20142	1.0	Block	exp	145	20140528.111052	same	20	diff	0	306
PRB	79	22	m	PSYC4802-20142	1.0	Block	exp	146	20140528.111054	same	100	diff	0	857
PRB	79	22	m	PSYC4802-20142	1.0	Block	exp	147	20140528.111057	same	60	same	1	453
PRB	79	22	m	PSYC4802-20142	1.0	Block	exp	148	20140528.111059	diff	100	diff	1	289
PRB	79	22	m	PSYC4802-20142	1.0	Block	exp	149	20140528.111102	diff	100	same	0	254
PRB	79	22	m	PSYC4802-20142	1.0	Block	exp	150	20140528.111104	diff	60	diff	1	288
