Experimenter	Subject	Age	Sex	Experiment	Version	Block	TrialType	Trial	Timestamp	SameDiff	Rotation	Response	Acc	RT
JH	259	17	m	PSYC4802-20144	1.0.1	Block	practice	1	20141020.115930	same	20	same	1	6387
JH	259	17	m	PSYC4802-20144	1.0.1	Block	practice	2	20141020.115939	diff	100	diff	1	11122
JH	259	17	m	PSYC4802-20144	1.0.1	Block	practice	3	20141020.115952	same	20	same	1	4112
JH	259	17	m	PSYC4802-20144	1.0.1	Block	practice	4	20141020.115959	diff	20	same	0	5876
JH	259	17	m	PSYC4802-20144	1.0.1	Block	practice	5	20141020.120007	diff	20	diff	1	8112
JH	259	17	m	PSYC4802-20144	1.0.1	Block	practice	6	20141020.120017	same	100	same	1	7696
JH	259	17	m	PSYC4802-20144	1.0.1	Block	practice	7	20141020.120026	diff	20	same	0	5441
JH	259	17	m	PSYC4802-20144	1.0.1	Block	practice	8	20141020.120034	diff	100	same	0	3501
JH	259	17	m	PSYC4802-20144	1.0.1	Block	practice	9	20141020.120039	same	60	same	1	4691
JH	259	17	m	PSYC4802-20144	1.0.1	Block	practice	10	20141020.120046	same	60	same	1	4261
JH	259	17	m	PSYC4802-20144	1.0.1	Block	practice	11	20141020.120053	diff	20	diff	1	7102
JH	259	17	m	PSYC4802-20144	1.0.1	Block	practice	12	20141020.120102	same	20	same	1	3447
JH	259	17	m	PSYC4802-20144	1.0.1	Block	practice	13	20141020.120107	same	100	same	1	3296
JH	259	17	m	PSYC4802-20144	1.0.1	Block	practice	14	20141020.120113	diff	100	diff	1	4246
JH	259	17	m	PSYC4802-20144	1.0.1	Block	practice	15	20141020.120119	same	100	same	1	3277
JH	259	17	m	PSYC4802-20144	1.0.1	Block	practice	16	20141020.120124	diff	60	diff	1	4071
JH	259	17	m	PSYC4802-20144	1.0.1	Block	practice	17	20141020.120130	same	20	same	1	3176
JH	259	17	m	PSYC4802-20144	1.0.1	Block	practice	18	20141020.120135	same	100	same	1	2916
JH	259	17	m	PSYC4802-20144	1.0.1	Block	practice	19	20141020.120140	diff	60	diff	1	2541
JH	259	17	m	PSYC4802-20144	1.0.1	Block	practice	20	20141020.120145	diff	60	diff	1	2711
JH	259	17	m	PSYC4802-20144	1.0.1	Block	practice	21	20141020.120150	diff	60	same	0	2401
JH	259	17	m	PSYC4802-20144	1.0.1	Block	practice	22	20141020.120154	same	60	same	1	4446
JH	259	17	m	PSYC4802-20144	1.0.1	Block	practice	23	20141020.120201	same	20	same	1	2786
JH	259	17	m	PSYC4802-20144	1.0.1	Block	practice	24	20141020.120205	same	100	diff	0	1686
JH	259	17	m	PSYC4802-20144	1.0.1	Block	practice	25	20141020.120209	diff	100	same	0	5106
JH	259	17	m	PSYC4802-20144	1.0.1	Block	practice	26	20141020.120216	diff	100	diff	1	5441
JH	259	17	m	PSYC4802-20144	1.0.1	Block	practice	27	20141020.120224	diff	60	diff	1	4496
JH	259	17	m	PSYC4802-20144	1.0.1	Block	practice	28	20141020.120230	same	60	same	1	4171
JH	259	17	m	PSYC4802-20144	1.0.1	Block	practice	29	20141020.120236	same	60	same	1	7517
JH	259	17	m	PSYC4802-20144	1.0.1	Block	practice	30	20141020.120246	diff	20	diff	1	4181
JH	259	17	m	PSYC4802-20144	1.0.1	Block	exp	31	20141020.120252	diff	60	diff	1	4077
JH	259	17	m	PSYC4802-20144	1.0.1	Block	exp	32	20141020.120258	diff	100	diff	1	5426
JH	259	17	m	PSYC4802-20144	1.0.1	Block	exp	33	20141020.120306	same	20	same	1	4251
JH	259	17	m	PSYC4802-20144	1.0.1	Block	exp	34	20141020.120312	diff	20	diff	1	3996
JH	259	17	m	PSYC4802-20144	1.0.1	Block	exp	35	20141020.120318	same	100	same	1	9141
JH	259	17	m	PSYC4802-20144	1.0.1	Block	exp	36	20141020.120329	diff	100	same	0	4121
JH	259	17	m	PSYC4802-20144	1.0.1	Block	exp	37	20141020.120335	same	60	same	1	7197
JH	259	17	m	PSYC4802-20144	1.0.1	Block	exp	38	20141020.120345	same	100	same	1	4506
JH	259	17	m	PSYC4802-20144	1.0.1	Block	exp	39	20141020.120351	diff	60	diff	1	8436
JH	259	17	m	PSYC4802-20144	1.0.1	Block	exp	40	20141020.120401	same	60	same	1	3606
JH	259	17	m	PSYC4802-20144	1.0.1	Block	exp	41	20141020.120407	same	20	same	1	3676
JH	259	17	m	PSYC4802-20144	1.0.1	Block	exp	42	20141020.120413	same	60	same	1	3071
JH	259	17	m	PSYC4802-20144	1.0.1	Block	exp	43	20141020.120418	same	20	same	1	2011
JH	259	17	m	PSYC4802-20144	1.0.1	Block	exp	44	20141020.120422	same	60	same	1	4601
JH	259	17	m	PSYC4802-20144	1.0.1	Block	exp	45	20141020.120429	diff	100	diff	1	5756
JH	259	17	m	PSYC4802-20144	1.0.1	Block	exp	46	20141020.120436	same	20	same	1	2366
JH	259	17	m	PSYC4802-20144	1.0.1	Block	exp	47	20141020.120441	same	100	diff	0	7767
JH	259	17	m	PSYC4802-20144	1.0.1	Block	exp	48	20141020.120450	diff	20	same	0	3456
JH	259	17	m	PSYC4802-20144	1.0.1	Block	exp	49	20141020.120456	diff	20	diff	1	5256
JH	259	17	m	PSYC4802-20144	1.0.1	Block	exp	50	20141020.120503	same	60	same	1	4702
JH	259	17	m	PSYC4802-20144	1.0.1	Block	exp	51	20141020.120529	same	20	same	1	2221
JH	259	17	m	PSYC4802-20144	1.0.1	Block	exp	52	20141020.120533	diff	100	diff	1	7597
JH	259	17	m	PSYC4802-20144	1.0.1	Block	exp	53	20141020.120543	diff	20	same	0	3821
JH	259	17	m	PSYC4802-20144	1.0.1	Block	exp	54	20141020.120549	diff	20	same	0	4916
JH	259	17	m	PSYC4802-20144	1.0.1	Block	exp	55	20141020.120556	same	100	same	1	4011
JH	259	17	m	PSYC4802-20144	1.0.1	Block	exp	56	20141020.120602	diff	100	diff	1	3741
JH	259	17	m	PSYC4802-20144	1.0.1	Block	exp	57	20141020.120608	same	100	same	1	4801
JH	259	17	m	PSYC4802-20144	1.0.1	Block	exp	58	20141020.120615	diff	100	same	0	7916
JH	259	17	m	PSYC4802-20144	1.0.1	Block	exp	59	20141020.120625	same	60	same	1	4971
JH	259	17	m	PSYC4802-20144	1.0.1	Block	exp	60	20141020.120632	same	100	same	1	4866
JH	259	17	m	PSYC4802-20144	1.0.1	Block	exp	61	20141020.120638	same	100	same	1	3686
JH	259	17	m	PSYC4802-20144	1.0.1	Block	exp	62	20141020.120644	diff	20	diff	1	6181
JH	259	17	m	PSYC4802-20144	1.0.1	Block	exp	63	20141020.120652	diff	20	diff	1	3656
JH	259	17	m	PSYC4802-20144	1.0.1	Block	exp	64	20141020.120658	same	60	diff	0	7156
JH	259	17	m	PSYC4802-20144	1.0.1	Block	exp	65	20141020.120707	same	100	diff	0	4822
JH	259	17	m	PSYC4802-20144	1.0.1	Block	exp	66	20141020.120714	same	20	same	1	2572
JH	259	17	m	PSYC4802-20144	1.0.1	Block	exp	67	20141020.120719	diff	60	diff	1	3666
JH	259	17	m	PSYC4802-20144	1.0.1	Block	exp	68	20141020.120724	diff	20	diff	1	7787
JH	259	17	m	PSYC4802-20144	1.0.1	Block	exp	69	20141020.120734	diff	20	diff	1	3081
JH	259	17	m	PSYC4802-20144	1.0.1	Block	exp	70	20141020.120739	diff	100	diff	1	4736
JH	259	17	m	PSYC4802-20144	1.0.1	Block	exp	71	20141020.120746	diff	100	diff	1	8141
JH	259	17	m	PSYC4802-20144	1.0.1	Block	exp	72	20141020.120756	diff	60	diff	1	4251
JH	259	17	m	PSYC4802-20144	1.0.1	Block	exp	73	20141020.120802	same	20	same	1	1681
JH	259	17	m	PSYC4802-20144	1.0.1	Block	exp	74	20141020.120806	same	20	same	1	5277
JH	259	17	m	PSYC4802-20144	1.0.1	Block	exp	75	20141020.120813	same	60	diff	0	2142
JH	259	17	m	PSYC4802-20144	1.0.1	Block	exp	76	20141020.120817	diff	100	diff	1	4201
JH	259	17	m	PSYC4802-20144	1.0.1	Block	exp	77	20141020.120824	diff	100	same	0	3556
JH	259	17	m	PSYC4802-20144	1.0.1	Block	exp	78	20141020.120829	diff	60	same	0	1722
JH	259	17	m	PSYC4802-20144	1.0.1	Block	exp	79	20141020.120833	diff	20	diff	1	5101
JH	259	17	m	PSYC4802-20144	1.0.1	Block	exp	80	20141020.120840	diff	60	diff	1	4832
JH	259	17	m	PSYC4802-20144	1.0.1	Block	exp	81	20141020.120847	diff	60	diff	1	6371
JH	259	17	m	PSYC4802-20144	1.0.1	Block	exp	82	20141020.120855	same	20	same	1	2596
JH	259	17	m	PSYC4802-20144	1.0.1	Block	exp	83	20141020.120900	same	20	same	1	2636
JH	259	17	m	PSYC4802-20144	1.0.1	Block	exp	84	20141020.120905	same	20	same	1	2726
JH	259	17	m	PSYC4802-20144	1.0.1	Block	exp	85	20141020.120909	same	60	diff	0	6006
JH	259	17	m	PSYC4802-20144	1.0.1	Block	exp	86	20141020.120917	diff	20	same	0	3256
JH	259	17	m	PSYC4802-20144	1.0.1	Block	exp	87	20141020.120923	same	20	same	1	2626
JH	259	17	m	PSYC4802-20144	1.0.1	Block	exp	88	20141020.120927	same	100	same	1	3391
JH	259	17	m	PSYC4802-20144	1.0.1	Block	exp	89	20141020.120933	diff	60	diff	1	3261
JH	259	17	m	PSYC4802-20144	1.0.1	Block	exp	90	20141020.120938	same	20	same	1	2901
JH	259	17	m	PSYC4802-20144	1.0.1	Block	exp	91	20141020.120943	diff	60	diff	1	7416
JH	259	17	m	PSYC4802-20144	1.0.1	Block	exp	92	20141020.120952	same	60	same	1	3216
JH	259	17	m	PSYC4802-20144	1.0.1	Block	exp	93	20141020.120958	diff	100	same	0	3076
JH	259	17	m	PSYC4802-20144	1.0.1	Block	exp	94	20141020.121003	diff	100	diff	1	4167
JH	259	17	m	PSYC4802-20144	1.0.1	Block	exp	95	20141020.121009	diff	100	diff	1	3901
JH	259	17	m	PSYC4802-20144	1.0.1	Block	exp	96	20141020.121015	diff	60	diff	1	5421
JH	259	17	m	PSYC4802-20144	1.0.1	Block	exp	97	20141020.121022	diff	20	diff	1	3791
JH	259	17	m	PSYC4802-20144	1.0.1	Block	exp	98	20141020.121028	same	100	same	1	4061
JH	259	17	m	PSYC4802-20144	1.0.1	Block	exp	99	20141020.121034	diff	60	same	0	3441
JH	259	17	m	PSYC4802-20144	1.0.1	Block	exp	100	20141020.121040	same	20	same	1	2986
JH	259	17	m	PSYC4802-20144	1.0.1	Block	exp	101	20141020.121121	diff	60	same	0	2656
JH	259	17	m	PSYC4802-20144	1.0.1	Block	exp	102	20141020.121126	diff	60	same	0	2311
JH	259	17	m	PSYC4802-20144	1.0.1	Block	exp	103	20141020.121130	diff	20	diff	1	4001
JH	259	17	m	PSYC4802-20144	1.0.1	Block	exp	104	20141020.121136	diff	60	diff	1	3636
JH	259	17	m	PSYC4802-20144	1.0.1	Block	exp	105	20141020.121142	diff	100	diff	1	2977
JH	259	17	m	PSYC4802-20144	1.0.1	Block	exp	106	20141020.121147	diff	60	diff	1	2371
JH	259	17	m	PSYC4802-20144	1.0.1	Block	exp	107	20141020.121151	same	100	diff	0	6021
JH	259	17	m	PSYC4802-20144	1.0.1	Block	exp	108	20141020.121159	diff	20	same	0	4091
JH	259	17	m	PSYC4802-20144	1.0.1	Block	exp	109	20141020.121206	same	100	same	1	6356
JH	259	17	m	PSYC4802-20144	1.0.1	Block	exp	110	20141020.121214	same	60	same	1	3621
JH	259	17	m	PSYC4802-20144	1.0.1	Block	exp	111	20141020.121220	same	60	same	1	5431
JH	259	17	m	PSYC4802-20144	1.0.1	Block	exp	112	20141020.121227	same	100	same	1	3021
JH	259	17	m	PSYC4802-20144	1.0.1	Block	exp	113	20141020.121232	diff	100	diff	1	7466
JH	259	17	m	PSYC4802-20144	1.0.1	Block	exp	114	20141020.121242	same	100	same	1	4362
JH	259	17	m	PSYC4802-20144	1.0.1	Block	exp	115	20141020.121248	diff	20	same	0	2501
JH	259	17	m	PSYC4802-20144	1.0.1	Block	exp	116	20141020.121253	diff	100	diff	1	3716
JH	259	17	m	PSYC4802-20144	1.0.1	Block	exp	117	20141020.121258	diff	20	diff	1	6606
JH	259	17	m	PSYC4802-20144	1.0.1	Block	exp	118	20141020.121307	same	60	same	1	2661
JH	259	17	m	PSYC4802-20144	1.0.1	Block	exp	119	20141020.121312	same	60	same	1	5392
JH	259	17	m	PSYC4802-20144	1.0.1	Block	exp	120	20141020.121319	diff	20	diff	1	5621
JH	259	17	m	PSYC4802-20144	1.0.1	Block	exp	121	20141020.121327	same	100	same	1	1891
JH	259	17	m	PSYC4802-20144	1.0.1	Block	exp	122	20141020.121331	same	100	same	1	2591
JH	259	17	m	PSYC4802-20144	1.0.1	Block	exp	123	20141020.121335	same	60	same	1	4441
JH	259	17	m	PSYC4802-20144	1.0.1	Block	exp	124	20141020.121342	same	100	diff	0	2456
JH	259	17	m	PSYC4802-20144	1.0.1	Block	exp	125	20141020.121346	same	20	same	1	4406
JH	259	17	m	PSYC4802-20144	1.0.1	Block	exp	126	20141020.121353	diff	20	diff	1	5761
JH	259	17	m	PSYC4802-20144	1.0.1	Block	exp	127	20141020.121400	same	60	same	1	4032
JH	259	17	m	PSYC4802-20144	1.0.1	Block	exp	128	20141020.121406	same	20	same	1	2951
JH	259	17	m	PSYC4802-20144	1.0.1	Block	exp	129	20141020.121411	diff	100	diff	1	4001
JH	259	17	m	PSYC4802-20144	1.0.1	Block	exp	130	20141020.121417	same	60	same	1	3606
JH	259	17	m	PSYC4802-20144	1.0.1	Block	exp	131	20141020.121423	diff	100	diff	1	3461
JH	259	17	m	PSYC4802-20144	1.0.1	Block	exp	132	20141020.121428	diff	60	diff	1	4072
JH	259	17	m	PSYC4802-20144	1.0.1	Block	exp	133	20141020.121434	same	20	same	1	1916
JH	259	17	m	PSYC4802-20144	1.0.1	Block	exp	134	20141020.121438	same	100	same	1	3166
JH	259	17	m	PSYC4802-20144	1.0.1	Block	exp	135	20141020.121444	same	20	same	1	1911
JH	259	17	m	PSYC4802-20144	1.0.1	Block	exp	136	20141020.121447	diff	100	diff	1	3986
JH	259	17	m	PSYC4802-20144	1.0.1	Block	exp	137	20141020.121453	diff	60	same	0	6047
JH	259	17	m	PSYC4802-20144	1.0.1	Block	exp	138	20141020.121502	diff	20	diff	1	2776
JH	259	17	m	PSYC4802-20144	1.0.1	Block	exp	139	20141020.121506	same	60	same	1	3551
JH	259	17	m	PSYC4802-20144	1.0.1	Block	exp	140	20141020.121512	diff	60	diff	1	2516
JH	259	17	m	PSYC4802-20144	1.0.1	Block	exp	141	20141020.121516	same	20	same	1	2386
JH	259	17	m	PSYC4802-20144	1.0.1	Block	exp	142	20141020.121521	same	60	same	1	3097
JH	259	17	m	PSYC4802-20144	1.0.1	Block	exp	143	20141020.121526	diff	60	diff	1	4162
JH	259	17	m	PSYC4802-20144	1.0.1	Block	exp	144	20141020.121532	same	20	same	1	1271
JH	259	17	m	PSYC4802-20144	1.0.1	Block	exp	145	20141020.121535	same	60	same	1	3696
JH	259	17	m	PSYC4802-20144	1.0.1	Block	exp	146	20141020.121541	diff	20	diff	1	4197
JH	259	17	m	PSYC4802-20144	1.0.1	Block	exp	147	20141020.121547	diff	100	diff	1	4937
JH	259	17	m	PSYC4802-20144	1.0.1	Block	exp	148	20141020.121554	diff	60	diff	1	2401
JH	259	17	m	PSYC4802-20144	1.0.1	Block	exp	149	20141020.121559	same	100	diff	0	4156
JH	259	17	m	PSYC4802-20144	1.0.1	Block	exp	150	20141020.121605	same	100	diff	0	2996
