Experimenter	Subject	Age	Sex	Experiment	Version	Block	TrialType	Trial	Timestamp	SameDiff	Rotation	Response	Acc	RT
skm	16	-1	f	PSYC4802-20142	1.0	Block	practice	1	20140421.104915	diff	60	diff	1	12734
skm	16	-1	f	PSYC4802-20142	1.0	Block	practice	2	20140421.104931	diff	20	diff	1	8836
skm	16	-1	f	PSYC4802-20142	1.0	Block	practice	3	20140421.104941	same	100	diff	0	16735
skm	16	-1	f	PSYC4802-20142	1.0	Block	practice	4	20140421.105000	same	60	same	1	15247
skm	16	-1	f	PSYC4802-20142	1.0	Block	practice	5	20140421.105017	same	60	diff	0	2790
skm	16	-1	f	PSYC4802-20142	1.0	Block	practice	6	20140421.105022	diff	100	diff	1	4530
skm	16	-1	f	PSYC4802-20142	1.0	Block	practice	7	20140421.105029	diff	60	diff	1	2972
skm	16	-1	f	PSYC4802-20142	1.0	Block	practice	8	20140421.105034	diff	100	diff	1	1859
skm	16	-1	f	PSYC4802-20142	1.0	Block	practice	9	20140421.105038	same	60	diff	0	1073
skm	16	-1	f	PSYC4802-20142	1.0	Block	practice	10	20140421.105041	same	100	diff	0	3078
skm	16	-1	f	PSYC4802-20142	1.0	Block	practice	11	20140421.105046	diff	100	diff	1	15024
skm	16	-1	f	PSYC4802-20142	1.0	Block	practice	12	20140421.105103	same	20	same	1	3850
skm	16	-1	f	PSYC4802-20142	1.0	Block	practice	13	20140421.105109	same	20	same	1	4331
skm	16	-1	f	PSYC4802-20142	1.0	Block	practice	14	20140421.105115	diff	20	diff	1	5139
skm	16	-1	f	PSYC4802-20142	1.0	Block	practice	15	20140421.105122	same	60	same	1	5180
skm	16	-1	f	PSYC4802-20142	1.0	Block	practice	16	20140421.105129	diff	60	diff	1	3271
skm	16	-1	f	PSYC4802-20142	1.0	Block	practice	17	20140421.105135	same	60	same	1	8333
skm	16	-1	f	PSYC4802-20142	1.0	Block	practice	18	20140421.105145	diff	100	same	0	6792
skm	16	-1	f	PSYC4802-20142	1.0	Block	practice	19	20140421.105154	diff	20	same	0	7982
skm	16	-1	f	PSYC4802-20142	1.0	Block	practice	20	20140421.105204	diff	100	diff	1	4900
skm	16	-1	f	PSYC4802-20142	1.0	Block	practice	21	20140421.105211	same	20	same	1	6704
skm	16	-1	f	PSYC4802-20142	1.0	Block	practice	22	20140421.105219	same	20	same	1	3868
skm	16	-1	f	PSYC4802-20142	1.0	Block	practice	23	20140421.105225	diff	20	diff	1	10261
skm	16	-1	f	PSYC4802-20142	1.0	Block	practice	24	20140421.105238	same	20	same	1	6985
skm	16	-1	f	PSYC4802-20142	1.0	Block	practice	25	20140421.105246	diff	60	same	0	11157
skm	16	-1	f	PSYC4802-20142	1.0	Block	practice	26	20140421.105300	diff	60	same	0	8831
skm	16	-1	f	PSYC4802-20142	1.0	Block	practice	27	20140421.105311	same	100	same	1	6611
skm	16	-1	f	PSYC4802-20142	1.0	Block	practice	28	20140421.105319	diff	20	diff	1	4531
skm	16	-1	f	PSYC4802-20142	1.0	Block	practice	29	20140421.105326	same	100	same	1	9587
skm	16	-1	f	PSYC4802-20142	1.0	Block	practice	30	20140421.105337	same	100	same	1	9997
skm	16	-1	f	PSYC4802-20142	1.0	Block	exp	31	20140421.105349	diff	60	diff	1	14063
skm	16	-1	f	PSYC4802-20142	1.0	Block	exp	32	20140421.105405	diff	100	same	0	7689
skm	16	-1	f	PSYC4802-20142	1.0	Block	exp	33	20140421.105415	same	20	same	1	4653
skm	16	-1	f	PSYC4802-20142	1.0	Block	exp	34	20140421.105422	same	60	same	1	6095
skm	16	-1	f	PSYC4802-20142	1.0	Block	exp	35	20140421.105430	same	20	same	1	4261
skm	16	-1	f	PSYC4802-20142	1.0	Block	exp	36	20140421.105436	diff	20	diff	1	10067
skm	16	-1	f	PSYC4802-20142	1.0	Block	exp	37	20140421.105448	same	60	same	1	3774
skm	16	-1	f	PSYC4802-20142	1.0	Block	exp	38	20140421.105454	same	20	same	1	3868
skm	16	-1	f	PSYC4802-20142	1.0	Block	exp	39	20140421.105500	diff	100	same	0	12751
skm	16	-1	f	PSYC4802-20142	1.0	Block	exp	40	20140421.105514	diff	20	same	0	9934
skm	16	-1	f	PSYC4802-20142	1.0	Block	exp	41	20140421.105526	diff	20	same	0	10876
skm	16	-1	f	PSYC4802-20142	1.0	Block	exp	42	20140421.105539	diff	60	diff	1	7237
skm	16	-1	f	PSYC4802-20142	1.0	Block	exp	43	20140421.105548	diff	60	diff	1	6229
skm	16	-1	f	PSYC4802-20142	1.0	Block	exp	44	20140421.105557	same	100	diff	0	4606
skm	16	-1	f	PSYC4802-20142	1.0	Block	exp	45	20140421.105603	same	100	diff	0	7501
skm	16	-1	f	PSYC4802-20142	1.0	Block	exp	46	20140421.105613	same	100	same	1	10172
skm	16	-1	f	PSYC4802-20142	1.0	Block	exp	47	20140421.105625	same	20	same	1	4384
skm	16	-1	f	PSYC4802-20142	1.0	Block	exp	48	20140421.105631	diff	60	diff	1	8310
skm	16	-1	f	PSYC4802-20142	1.0	Block	exp	49	20140421.105642	diff	20	diff	1	3640
skm	16	-1	f	PSYC4802-20142	1.0	Block	exp	50	20140421.105647	same	100	same	1	15124
skm	16	-1	f	PSYC4802-20142	1.0	Block	exp	51	20140421.105711	same	60	same	1	7472
skm	16	-1	f	PSYC4802-20142	1.0	Block	exp	52	20140421.105721	diff	60	diff	1	5374
skm	16	-1	f	PSYC4802-20142	1.0	Block	exp	53	20140421.105728	same	60	same	1	6265
skm	16	-1	f	PSYC4802-20142	1.0	Block	exp	54	20140421.105736	diff	60	diff	1	11444
skm	16	-1	f	PSYC4802-20142	1.0	Block	exp	55	20140421.105750	same	60	diff	0	5122
skm	16	-1	f	PSYC4802-20142	1.0	Block	exp	56	20140421.105757	diff	20	diff	1	5538
skm	16	-1	f	PSYC4802-20142	1.0	Block	exp	57	20140421.105805	diff	100	diff	1	7560
skm	16	-1	f	PSYC4802-20142	1.0	Block	exp	58	20140421.105814	diff	20	diff	1	4214
skm	16	-1	f	PSYC4802-20142	1.0	Block	exp	59	20140421.105820	diff	100	diff	1	3792
skm	16	-1	f	PSYC4802-20142	1.0	Block	exp	60	20140421.105826	same	100	diff	0	14673
skm	16	-1	f	PSYC4802-20142	1.0	Block	exp	61	20140421.105843	same	100	same	1	12065
skm	16	-1	f	PSYC4802-20142	1.0	Block	exp	62	20140421.105857	same	20	same	1	5022
skm	16	-1	f	PSYC4802-20142	1.0	Block	exp	63	20140421.105904	diff	100	diff	1	6441
skm	16	-1	f	PSYC4802-20142	1.0	Block	exp	64	20140421.105912	diff	60	diff	1	7859
skm	16	-1	f	PSYC4802-20142	1.0	Block	exp	65	20140421.105922	diff	20	diff	1	2228
skm	16	-1	f	PSYC4802-20142	1.0	Block	exp	66	20140421.105927	same	20	same	1	3839
skm	16	-1	f	PSYC4802-20142	1.0	Block	exp	67	20140421.105932	diff	60	diff	1	4542
skm	16	-1	f	PSYC4802-20142	1.0	Block	exp	68	20140421.105939	same	20	same	1	3347
skm	16	-1	f	PSYC4802-20142	1.0	Block	exp	69	20140421.105944	diff	20	diff	1	11134
skm	16	-1	f	PSYC4802-20142	1.0	Block	exp	70	20140421.105957	diff	60	diff	1	2374
skm	16	-1	f	PSYC4802-20142	1.0	Block	exp	71	20140421.110002	diff	20	diff	1	6376
skm	16	-1	f	PSYC4802-20142	1.0	Block	exp	72	20140421.110010	diff	100	diff	1	7049
skm	16	-1	f	PSYC4802-20142	1.0	Block	exp	73	20140421.110019	diff	20	diff	1	5568
skm	16	-1	f	PSYC4802-20142	1.0	Block	exp	74	20140421.110027	same	100	same	1	8942
skm	16	-1	f	PSYC4802-20142	1.0	Block	exp	75	20140421.110038	diff	60	diff	1	12610
skm	16	-1	f	PSYC4802-20142	1.0	Block	exp	76	20140421.110052	diff	20	diff	1	9300
skm	16	-1	f	PSYC4802-20142	1.0	Block	exp	77	20140421.110104	same	20	same	1	5075
skm	16	-1	f	PSYC4802-20142	1.0	Block	exp	78	20140421.110111	same	20	same	1	2913
skm	16	-1	f	PSYC4802-20142	1.0	Block	exp	79	20140421.110116	diff	100	diff	1	5855
skm	16	-1	f	PSYC4802-20142	1.0	Block	exp	80	20140421.110124	same	60	same	1	5943
skm	16	-1	f	PSYC4802-20142	1.0	Block	exp	81	20140421.110131	diff	60	diff	1	10811
skm	16	-1	f	PSYC4802-20142	1.0	Block	exp	82	20140421.110144	same	60	same	1	9025
skm	16	-1	f	PSYC4802-20142	1.0	Block	exp	83	20140421.110155	same	60	same	1	5105
skm	16	-1	f	PSYC4802-20142	1.0	Block	exp	84	20140421.110202	diff	20	diff	1	14169
skm	16	-1	f	PSYC4802-20142	1.0	Block	exp	85	20140421.110219	diff	20	diff	1	17280
skm	16	-1	f	PSYC4802-20142	1.0	Block	exp	86	20140421.110238	same	100	same	1	6405
skm	16	-1	f	PSYC4802-20142	1.0	Block	exp	87	20140421.110246	diff	60	diff	1	6159
skm	16	-1	f	PSYC4802-20142	1.0	Block	exp	88	20140421.110254	same	20	same	1	3675
skm	16	-1	f	PSYC4802-20142	1.0	Block	exp	89	20140421.110300	diff	20	diff	1	13928
skm	16	-1	f	PSYC4802-20142	1.0	Block	exp	90	20140421.110316	diff	60	diff	1	6376
skm	16	-1	f	PSYC4802-20142	1.0	Block	exp	91	20140421.110324	diff	100	same	0	9915
skm	16	-1	f	PSYC4802-20142	1.0	Block	exp	92	20140421.110336	same	60	same	1	5989
skm	16	-1	f	PSYC4802-20142	1.0	Block	exp	93	20140421.110344	diff	100	diff	1	4068
skm	16	-1	f	PSYC4802-20142	1.0	Block	exp	94	20140421.110350	diff	100	diff	1	3259
skm	16	-1	f	PSYC4802-20142	1.0	Block	exp	95	20140421.110356	same	20	same	1	3885
skm	16	-1	f	PSYC4802-20142	1.0	Block	exp	96	20140421.110402	same	100	same	1	8503
skm	16	-1	f	PSYC4802-20142	1.0	Block	exp	97	20140421.110412	same	60	same	1	3382
skm	16	-1	f	PSYC4802-20142	1.0	Block	exp	98	20140421.110417	same	60	same	1	8690
skm	16	-1	f	PSYC4802-20142	1.0	Block	exp	99	20140421.110428	diff	100	diff	1	8450
skm	16	-1	f	PSYC4802-20142	1.0	Block	exp	100	20140421.110439	same	100	same	1	6739
skm	16	-1	f	PSYC4802-20142	1.0	Block	exp	101	20140421.110454	diff	100	diff	1	4747
skm	16	-1	f	PSYC4802-20142	1.0	Block	exp	102	20140421.110501	diff	100	diff	1	6787
skm	16	-1	f	PSYC4802-20142	1.0	Block	exp	103	20140421.110510	diff	100	same	0	7278
skm	16	-1	f	PSYC4802-20142	1.0	Block	exp	104	20140421.110519	same	100	same	1	17520
skm	16	-1	f	PSYC4802-20142	1.0	Block	exp	105	20140421.110538	same	60	same	1	10231
skm	16	-1	f	PSYC4802-20142	1.0	Block	exp	106	20140421.110551	diff	60	diff	1	2662
skm	16	-1	f	PSYC4802-20142	1.0	Block	exp	107	20140421.110555	diff	60	diff	1	4741
skm	16	-1	f	PSYC4802-20142	1.0	Block	exp	108	20140421.110602	same	20	same	1	4882
skm	16	-1	f	PSYC4802-20142	1.0	Block	exp	109	20140421.110609	diff	60	diff	1	13396
skm	16	-1	f	PSYC4802-20142	1.0	Block	exp	110	20140421.110624	diff	100	diff	1	8345
skm	16	-1	f	PSYC4802-20142	1.0	Block	exp	111	20140421.110635	same	60	same	1	5655
skm	16	-1	f	PSYC4802-20142	1.0	Block	exp	112	20140421.110642	same	20	same	1	2732
skm	16	-1	f	PSYC4802-20142	1.0	Block	exp	113	20140421.110647	diff	100	diff	1	11632
skm	16	-1	f	PSYC4802-20142	1.0	Block	exp	114	20140421.110701	same	60	same	1	11427
skm	16	-1	f	PSYC4802-20142	1.0	Block	exp	115	20140421.110714	same	20	same	1	4946
skm	16	-1	f	PSYC4802-20142	1.0	Block	exp	116	20140421.110721	diff	20	diff	1	12950
skm	16	-1	f	PSYC4802-20142	1.0	Block	exp	117	20140421.110736	same	20	same	1	6487
skm	16	-1	f	PSYC4802-20142	1.0	Block	exp	118	20140421.110745	same	100	diff	0	2702
skm	16	-1	f	PSYC4802-20142	1.0	Block	exp	119	20140421.110749	same	20	same	1	4103
skm	16	-1	f	PSYC4802-20142	1.0	Block	exp	120	20140421.110755	same	100	same	1	11286
skm	16	-1	f	PSYC4802-20142	1.0	Block	exp	121	20140421.110809	same	60	same	1	3997
skm	16	-1	f	PSYC4802-20142	1.0	Block	exp	122	20140421.110815	diff	60	diff	1	18617
skm	16	-1	f	PSYC4802-20142	1.0	Block	exp	123	20140421.110835	diff	100	diff	1	9077
skm	16	-1	f	PSYC4802-20142	1.0	Block	exp	124	20140421.110846	diff	100	diff	1	6019
skm	16	-1	f	PSYC4802-20142	1.0	Block	exp	125	20140421.110854	same	100	same	1	10407
skm	16	-1	f	PSYC4802-20142	1.0	Block	exp	126	20140421.110907	same	60	same	1	8105
skm	16	-1	f	PSYC4802-20142	1.0	Block	exp	127	20140421.110917	same	60	same	1	6751
skm	16	-1	f	PSYC4802-20142	1.0	Block	exp	128	20140421.110926	same	20	same	1	4196
skm	16	-1	f	PSYC4802-20142	1.0	Block	exp	129	20140421.110932	same	100	same	1	13167
skm	16	-1	f	PSYC4802-20142	1.0	Block	exp	130	20140421.110947	diff	100	diff	1	4009
skm	16	-1	f	PSYC4802-20142	1.0	Block	exp	131	20140421.110953	same	60	same	1	5151
skm	16	-1	f	PSYC4802-20142	1.0	Block	exp	132	20140421.111000	same	100	diff	0	5029
skm	16	-1	f	PSYC4802-20142	1.0	Block	exp	133	20140421.111007	same	60	same	1	8790
skm	16	-1	f	PSYC4802-20142	1.0	Block	exp	134	20140421.111018	same	60	same	1	12118
skm	16	-1	f	PSYC4802-20142	1.0	Block	exp	135	20140421.111032	diff	20	diff	1	3915
skm	16	-1	f	PSYC4802-20142	1.0	Block	exp	136	20140421.111038	diff	60	diff	1	8362
skm	16	-1	f	PSYC4802-20142	1.0	Block	exp	137	20140421.111049	same	100	same	1	8515
skm	16	-1	f	PSYC4802-20142	1.0	Block	exp	138	20140421.111059	same	20	same	1	9763
skm	16	-1	f	PSYC4802-20142	1.0	Block	exp	139	20140421.111111	same	100	same	1	6692
skm	16	-1	f	PSYC4802-20142	1.0	Block	exp	140	20140421.111120	diff	20	same	0	7314
skm	16	-1	f	PSYC4802-20142	1.0	Block	exp	141	20140421.111129	diff	100	diff	1	4689
skm	16	-1	f	PSYC4802-20142	1.0	Block	exp	142	20140421.111136	same	100	diff	0	3136
skm	16	-1	f	PSYC4802-20142	1.0	Block	exp	143	20140421.111141	same	20	same	1	4525
skm	16	-1	f	PSYC4802-20142	1.0	Block	exp	144	20140421.111147	diff	60	same	0	12136
skm	16	-1	f	PSYC4802-20142	1.0	Block	exp	145	20140421.111201	same	20	same	1	3464
skm	16	-1	f	PSYC4802-20142	1.0	Block	exp	146	20140421.111207	diff	20	diff	1	3962
skm	16	-1	f	PSYC4802-20142	1.0	Block	exp	147	20140421.111213	diff	20	diff	1	10255
skm	16	-1	f	PSYC4802-20142	1.0	Block	exp	148	20140421.111225	diff	20	same	0	7044
skm	16	-1	f	PSYC4802-20142	1.0	Block	exp	149	20140421.111234	diff	60	diff	1	6212
skm	16	-1	f	PSYC4802-20142	1.0	Block	exp	150	20140421.111242	same	100	diff	0	3083
