Experimenter	Subject	Age	Sex	Experiment	Version	Block	TrialType	Trial	Timestamp	SameDiff	Rotation	Response	Acc	RT
JJ	231	25	F	PSYC4802-20144	1.0	Block	practice	1	20141013.114219	diff	100	diff	1	33491
JJ	231	25	F	PSYC4802-20144	1.0	Block	practice	2	20141013.114255	diff	60	diff	1	9591
JJ	231	25	F	PSYC4802-20144	1.0	Block	practice	3	20141013.114306	diff	60	diff	1	5901
JJ	231	25	F	PSYC4802-20144	1.0	Block	practice	4	20141013.114314	same	100	diff	0	5866
JJ	231	25	F	PSYC4802-20144	1.0	Block	practice	5	20141013.114322	same	20	same	1	5202
JJ	231	25	F	PSYC4802-20144	1.0	Block	practice	6	20141013.114329	same	100	same	1	6726
JJ	231	25	F	PSYC4802-20144	1.0	Block	practice	7	20141013.114338	diff	100	diff	1	7096
JJ	231	25	F	PSYC4802-20144	1.0	Block	practice	8	20141013.114347	same	20	same	1	3396
JJ	231	25	F	PSYC4802-20144	1.0	Block	practice	9	20141013.114353	diff	60	diff	1	5837
JJ	231	25	F	PSYC4802-20144	1.0	Block	practice	10	20141013.114400	diff	20	diff	1	5712
JJ	231	25	F	PSYC4802-20144	1.0	Block	practice	11	20141013.114408	diff	100	same	0	6516
JJ	231	25	F	PSYC4802-20144	1.0	Block	practice	12	20141013.114417	same	100	same	1	7501
JJ	231	25	F	PSYC4802-20144	1.0	Block	practice	13	20141013.114426	same	20	same	1	6816
JJ	231	25	F	PSYC4802-20144	1.0	Block	practice	14	20141013.114435	same	100	same	1	5041
JJ	231	25	F	PSYC4802-20144	1.0	Block	practice	15	20141013.114442	same	100	same	1	5061
JJ	231	25	F	PSYC4802-20144	1.0	Block	practice	16	20141013.114449	diff	20	diff	1	2566
JJ	231	25	F	PSYC4802-20144	1.0	Block	practice	17	20141013.114454	same	60	same	1	5206
JJ	231	25	F	PSYC4802-20144	1.0	Block	practice	18	20141013.114501	diff	100	same	0	4106
JJ	231	25	F	PSYC4802-20144	1.0	Block	practice	19	20141013.114507	same	60	same	1	2446
JJ	231	25	F	PSYC4802-20144	1.0	Block	practice	20	20141013.114511	diff	60	diff	1	7391
JJ	231	25	F	PSYC4802-20144	1.0	Block	practice	21	20141013.114521	diff	20	diff	1	5156
JJ	231	25	F	PSYC4802-20144	1.0	Block	practice	22	20141013.114528	diff	100	diff	1	6677
JJ	231	25	F	PSYC4802-20144	1.0	Block	practice	23	20141013.114537	diff	20	same	0	3626
JJ	231	25	F	PSYC4802-20144	1.0	Block	practice	24	20141013.114542	diff	20	diff	1	4706
JJ	231	25	F	PSYC4802-20144	1.0	Block	practice	25	20141013.114549	same	60	same	1	3752
JJ	231	25	F	PSYC4802-20144	1.0	Block	practice	26	20141013.114555	same	20	same	1	2226
JJ	231	25	F	PSYC4802-20144	1.0	Block	practice	27	20141013.114559	same	20	same	1	1861
JJ	231	25	F	PSYC4802-20144	1.0	Block	practice	28	20141013.114603	same	60	same	1	2397
JJ	231	25	F	PSYC4802-20144	1.0	Block	practice	29	20141013.114607	diff	60	diff	1	2421
JJ	231	25	F	PSYC4802-20144	1.0	Block	practice	30	20141013.114612	same	60	same	1	2371
JJ	231	25	F	PSYC4802-20144	1.0	Block	exp	31	20141013.114616	diff	20	diff	1	6037
JJ	231	25	F	PSYC4802-20144	1.0	Block	exp	32	20141013.114624	diff	100	diff	1	7437
JJ	231	25	F	PSYC4802-20144	1.0	Block	exp	33	20141013.114633	diff	60	diff	1	2821
JJ	231	25	F	PSYC4802-20144	1.0	Block	exp	34	20141013.114638	diff	100	diff	1	9006
JJ	231	25	F	PSYC4802-20144	1.0	Block	exp	35	20141013.114649	same	60	same	1	3417
JJ	231	25	F	PSYC4802-20144	1.0	Block	exp	36	20141013.114655	diff	100	diff	1	5287
JJ	231	25	F	PSYC4802-20144	1.0	Block	exp	37	20141013.114702	diff	60	diff	1	5071
JJ	231	25	F	PSYC4802-20144	1.0	Block	exp	38	20141013.114709	same	60	88	-3	2241
JJ	231	25	F	PSYC4802-20144	1.0	Block	exp	39	20141013.114713	same	60	same	1	3786
JJ	231	25	F	PSYC4802-20144	1.0	Block	exp	40	20141013.114719	same	20	same	1	3486
JJ	231	25	F	PSYC4802-20144	1.0	Block	exp	41	20141013.114724	diff	20	diff	1	2441
JJ	231	25	F	PSYC4802-20144	1.0	Block	exp	42	20141013.114729	diff	20	diff	1	1911
JJ	231	25	F	PSYC4802-20144	1.0	Block	exp	43	20141013.114733	same	100	diff	0	3546
JJ	231	25	F	PSYC4802-20144	1.0	Block	exp	44	20141013.114738	diff	20	same	0	7092
JJ	231	25	F	PSYC4802-20144	1.0	Block	exp	45	20141013.114747	same	20	same	1	2871
JJ	231	25	F	PSYC4802-20144	1.0	Block	exp	46	20141013.114752	same	100	same	1	7022
JJ	231	25	F	PSYC4802-20144	1.0	Block	exp	47	20141013.114801	diff	20	diff	1	2492
JJ	231	25	F	PSYC4802-20144	1.0	Block	exp	48	20141013.114806	diff	60	diff	1	2596
JJ	231	25	F	PSYC4802-20144	1.0	Block	exp	49	20141013.114810	diff	60	diff	1	2226
JJ	231	25	F	PSYC4802-20144	1.0	Block	exp	50	20141013.114815	diff	20	same	0	4471
JJ	231	25	F	PSYC4802-20144	1.0	Block	exp	51	20141013.114825	same	100	same	1	4277
JJ	231	25	F	PSYC4802-20144	1.0	Block	exp	52	20141013.114832	diff	100	diff	1	5966
JJ	231	25	F	PSYC4802-20144	1.0	Block	exp	53	20141013.114840	same	60	same	1	3307
JJ	231	25	F	PSYC4802-20144	1.0	Block	exp	54	20141013.114845	diff	100	diff	1	3916
JJ	231	25	F	PSYC4802-20144	1.0	Block	exp	55	20141013.114851	diff	20	diff	1	2551
JJ	231	25	F	PSYC4802-20144	1.0	Block	exp	56	20141013.114855	same	20	same	1	2337
JJ	231	25	F	PSYC4802-20144	1.0	Block	exp	57	20141013.114900	diff	100	same	0	8122
JJ	231	25	F	PSYC4802-20144	1.0	Block	exp	58	20141013.114910	diff	60	diff	1	2556
JJ	231	25	F	PSYC4802-20144	1.0	Block	exp	59	20141013.114914	same	60	same	1	3917
JJ	231	25	F	PSYC4802-20144	1.0	Block	exp	60	20141013.114920	same	20	same	1	1771
JJ	231	25	F	PSYC4802-20144	1.0	Block	exp	61	20141013.114924	same	100	same	1	2507
JJ	231	25	F	PSYC4802-20144	1.0	Block	exp	62	20141013.114929	same	20	same	1	3541
JJ	231	25	F	PSYC4802-20144	1.0	Block	exp	63	20141013.114934	same	100	diff	0	1836
JJ	231	25	F	PSYC4802-20144	1.0	Block	exp	64	20141013.114938	same	60	same	1	4391
JJ	231	25	F	PSYC4802-20144	1.0	Block	exp	65	20141013.114944	same	20	same	1	4146
JJ	231	25	F	PSYC4802-20144	1.0	Block	exp	66	20141013.114951	same	60	same	1	2601
JJ	231	25	F	PSYC4802-20144	1.0	Block	exp	67	20141013.114955	same	100	diff	0	4741
JJ	231	25	F	PSYC4802-20144	1.0	Block	exp	68	20141013.115002	diff	60	same	0	2151
JJ	231	25	F	PSYC4802-20144	1.0	Block	exp	69	20141013.115006	same	60	same	1	3102
JJ	231	25	F	PSYC4802-20144	1.0	Block	exp	70	20141013.115011	same	20	same	1	2952
JJ	231	25	F	PSYC4802-20144	1.0	Block	exp	71	20141013.115016	diff	60	diff	1	3387
JJ	231	25	F	PSYC4802-20144	1.0	Block	exp	72	20141013.115022	same	100	same	1	2826
JJ	231	25	F	PSYC4802-20144	1.0	Block	exp	73	20141013.115026	diff	60	same	0	2401
JJ	231	25	F	PSYC4802-20144	1.0	Block	exp	74	20141013.115031	diff	20	diff	1	3511
JJ	231	25	F	PSYC4802-20144	1.0	Block	exp	75	20141013.115036	diff	20	same	0	2796
JJ	231	25	F	PSYC4802-20144	1.0	Block	exp	76	20141013.115041	diff	20	diff	1	1971
JJ	231	25	F	PSYC4802-20144	1.0	Block	exp	77	20141013.115045	same	20	same	1	2246
JJ	231	25	F	PSYC4802-20144	1.0	Block	exp	78	20141013.115049	same	20	same	1	1866
JJ	231	25	F	PSYC4802-20144	1.0	Block	exp	79	20141013.115053	same	60	same	1	2571
JJ	231	25	F	PSYC4802-20144	1.0	Block	exp	80	20141013.115058	same	20	same	1	2852
JJ	231	25	F	PSYC4802-20144	1.0	Block	exp	81	20141013.115103	diff	20	same	0	4231
JJ	231	25	F	PSYC4802-20144	1.0	Block	exp	82	20141013.115109	same	100	same	1	3656
JJ	231	25	F	PSYC4802-20144	1.0	Block	exp	83	20141013.115115	same	60	same	1	3231
JJ	231	25	F	PSYC4802-20144	1.0	Block	exp	84	20141013.115120	same	20	same	1	2641
JJ	231	25	F	PSYC4802-20144	1.0	Block	exp	85	20141013.115125	diff	60	diff	1	2106
JJ	231	25	F	PSYC4802-20144	1.0	Block	exp	86	20141013.115129	same	60	same	1	4401
JJ	231	25	F	PSYC4802-20144	1.0	Block	exp	87	20141013.115135	diff	20	diff	1	1621
JJ	231	25	F	PSYC4802-20144	1.0	Block	exp	88	20141013.115139	diff	100	diff	1	1511
JJ	231	25	F	PSYC4802-20144	1.0	Block	exp	89	20141013.115142	same	20	same	1	1866
JJ	231	25	F	PSYC4802-20144	1.0	Block	exp	90	20141013.115146	same	20	same	1	1401
JJ	231	25	F	PSYC4802-20144	1.0	Block	exp	91	20141013.115149	same	20	same	1	2186
JJ	231	25	F	PSYC4802-20144	1.0	Block	exp	92	20141013.115154	same	60	same	1	4301
JJ	231	25	F	PSYC4802-20144	1.0	Block	exp	93	20141013.115200	same	100	same	1	2756
JJ	231	25	F	PSYC4802-20144	1.0	Block	exp	94	20141013.115205	same	100	same	1	2221
JJ	231	25	F	PSYC4802-20144	1.0	Block	exp	95	20141013.115209	diff	100	same	0	4457
JJ	231	25	F	PSYC4802-20144	1.0	Block	exp	96	20141013.115216	diff	20	same	0	3936
JJ	231	25	F	PSYC4802-20144	1.0	Block	exp	97	20141013.115221	same	100	same	1	4321
JJ	231	25	F	PSYC4802-20144	1.0	Block	exp	98	20141013.115228	same	100	same	1	4422
JJ	231	25	F	PSYC4802-20144	1.0	Block	exp	99	20141013.115234	diff	60	diff	1	3561
JJ	231	25	F	PSYC4802-20144	1.0	Block	exp	100	20141013.115240	diff	100	diff	1	3001
JJ	231	25	F	PSYC4802-20144	1.0	Block	exp	101	20141013.115247	diff	60	diff	1	2056
JJ	231	25	F	PSYC4802-20144	1.0	Block	exp	102	20141013.115251	diff	100	diff	1	2396
JJ	231	25	F	PSYC4802-20144	1.0	Block	exp	103	20141013.115255	same	100	same	1	4386
JJ	231	25	F	PSYC4802-20144	1.0	Block	exp	104	20141013.115302	diff	100	diff	1	6111
JJ	231	25	F	PSYC4802-20144	1.0	Block	exp	105	20141013.115310	same	60	same	1	5996
JJ	231	25	F	PSYC4802-20144	1.0	Block	exp	106	20141013.115318	diff	20	same	0	6811
JJ	231	25	F	PSYC4802-20144	1.0	Block	exp	107	20141013.115327	diff	100	diff	1	3851
JJ	231	25	F	PSYC4802-20144	1.0	Block	exp	108	20141013.115333	same	60	same	1	3416
JJ	231	25	F	PSYC4802-20144	1.0	Block	exp	109	20141013.115338	diff	100	diff	1	2206
JJ	231	25	F	PSYC4802-20144	1.0	Block	exp	110	20141013.115342	diff	20	diff	1	8431
JJ	231	25	F	PSYC4802-20144	1.0	Block	exp	111	20141013.115353	same	100	same	1	5637
JJ	231	25	F	PSYC4802-20144	1.0	Block	exp	112	20141013.115400	same	100	diff	0	2322
JJ	231	25	F	PSYC4802-20144	1.0	Block	exp	113	20141013.115405	diff	60	diff	1	3036
JJ	231	25	F	PSYC4802-20144	1.0	Block	exp	114	20141013.115410	same	60	same	1	4167
JJ	231	25	F	PSYC4802-20144	1.0	Block	exp	115	20141013.115416	diff	100	diff	1	4916
JJ	231	25	F	PSYC4802-20144	1.0	Block	exp	116	20141013.115423	diff	20	same	0	5487
JJ	231	25	F	PSYC4802-20144	1.0	Block	exp	117	20141013.115430	same	60	same	1	3496
JJ	231	25	F	PSYC4802-20144	1.0	Block	exp	118	20141013.115436	diff	60	same	0	4632
JJ	231	25	F	PSYC4802-20144	1.0	Block	exp	119	20141013.115442	same	60	same	1	5251
JJ	231	25	F	PSYC4802-20144	1.0	Block	exp	120	20141013.115450	same	100	diff	0	3166
JJ	231	25	F	PSYC4802-20144	1.0	Block	exp	121	20141013.115455	diff	100	same	0	3376
JJ	231	25	F	PSYC4802-20144	1.0	Block	exp	122	20141013.115500	diff	20	diff	1	13817
JJ	231	25	F	PSYC4802-20144	1.0	Block	exp	123	20141013.115516	diff	60	diff	1	5657
JJ	231	25	F	PSYC4802-20144	1.0	Block	exp	124	20141013.115524	same	20	same	1	4432
JJ	231	25	F	PSYC4802-20144	1.0	Block	exp	125	20141013.115530	diff	100	diff	1	8377
JJ	231	25	F	PSYC4802-20144	1.0	Block	exp	126	20141013.115541	same	20	same	1	4511
JJ	231	25	F	PSYC4802-20144	1.0	Block	exp	127	20141013.115547	diff	100	diff	1	4122
JJ	231	25	F	PSYC4802-20144	1.0	Block	exp	128	20141013.115553	same	100	same	1	7161
JJ	231	25	F	PSYC4802-20144	1.0	Block	exp	129	20141013.115602	diff	100	same	0	4522
JJ	231	25	F	PSYC4802-20144	1.0	Block	exp	130	20141013.115609	diff	60	diff	1	5601
JJ	231	25	F	PSYC4802-20144	1.0	Block	exp	131	20141013.115617	same	100	same	1	5546
JJ	231	25	F	PSYC4802-20144	1.0	Block	exp	132	20141013.115624	diff	60	diff	1	6096
JJ	231	25	F	PSYC4802-20144	1.0	Block	exp	133	20141013.115632	diff	100	same	0	4181
JJ	231	25	F	PSYC4802-20144	1.0	Block	exp	134	20141013.115638	diff	60	diff	1	7231
JJ	231	25	F	PSYC4802-20144	1.0	Block	exp	135	20141013.115648	diff	20	same	0	5126
JJ	231	25	F	PSYC4802-20144	1.0	Block	exp	136	20141013.115655	same	100	same	1	4991
JJ	231	25	F	PSYC4802-20144	1.0	Block	exp	137	20141013.115702	diff	20	diff	1	4707
JJ	231	25	F	PSYC4802-20144	1.0	Block	exp	138	20141013.115708	same	60	same	1	3106
JJ	231	25	F	PSYC4802-20144	1.0	Block	exp	139	20141013.115714	same	60	same	1	3882
JJ	231	25	F	PSYC4802-20144	1.0	Block	exp	140	20141013.115719	diff	60	diff	1	3356
JJ	231	25	F	PSYC4802-20144	1.0	Block	exp	141	20141013.115725	same	20	same	1	3886
JJ	231	25	F	PSYC4802-20144	1.0	Block	exp	142	20141013.115731	diff	60	diff	1	7898
JJ	231	25	F	PSYC4802-20144	1.0	Block	exp	143	20141013.115741	diff	20	diff	1	3906
JJ	231	25	F	PSYC4802-20144	1.0	Block	exp	144	20141013.115746	same	100	same	1	4516
JJ	231	25	F	PSYC4802-20144	1.0	Block	exp	145	20141013.115753	diff	60	same	0	5781
JJ	231	25	F	PSYC4802-20144	1.0	Block	exp	146	20141013.115801	diff	100	diff	1	4717
JJ	231	25	F	PSYC4802-20144	1.0	Block	exp	147	20141013.115808	same	20	same	1	2486
JJ	231	25	F	PSYC4802-20144	1.0	Block	exp	148	20141013.115812	same	20	same	1	3441
JJ	231	25	F	PSYC4802-20144	1.0	Block	exp	149	20141013.115817	same	60	same	1	3896
JJ	231	25	F	PSYC4802-20144	1.0	Block	exp	150	20141013.115823	same	20	same	1	3321
