Experimenter	Subject	Age	Sex	Experiment	Version	Block	TrialType	Trial	Timestamp	SameDiff	Rotation	Response	Acc	RT
SMP	333	18	F	PSYC4802-20144	1.0.1	Block	practice	1	20141103.112315	diff	20	diff	1	9801
SMP	333	18	F	PSYC4802-20144	1.0.1	Block	practice	2	20141103.112327	diff	100	diff	1	4596
SMP	333	18	F	PSYC4802-20144	1.0.1	Block	practice	3	20141103.112333	diff	100	same	0	10687
SMP	333	18	F	PSYC4802-20144	1.0.1	Block	practice	4	20141103.112346	diff	100	diff	1	2246
SMP	333	18	F	PSYC4802-20144	1.0.1	Block	practice	5	20141103.112350	same	100	diff	0	2206
SMP	333	18	F	PSYC4802-20144	1.0.1	Block	practice	6	20141103.112355	diff	20	diff	1	6551
SMP	333	18	F	PSYC4802-20144	1.0.1	Block	practice	7	20141103.112403	diff	100	diff	1	7791
SMP	333	18	F	PSYC4802-20144	1.0.1	Block	practice	8	20141103.112413	same	20	same	1	3071
SMP	333	18	F	PSYC4802-20144	1.0.1	Block	practice	9	20141103.112418	same	20	diff	0	3256
SMP	333	18	F	PSYC4802-20144	1.0.1	Block	practice	10	20141103.112423	diff	60	diff	1	3537
SMP	333	18	F	PSYC4802-20144	1.0.1	Block	practice	11	20141103.112429	same	60	diff	0	1397
SMP	333	18	F	PSYC4802-20144	1.0.1	Block	practice	12	20141103.112432	diff	60	diff	1	3751
SMP	333	18	F	PSYC4802-20144	1.0.1	Block	practice	13	20141103.112438	same	20	same	1	2932
SMP	333	18	F	PSYC4802-20144	1.0.1	Block	practice	14	20141103.112443	diff	100	diff	1	8107
SMP	333	18	F	PSYC4802-20144	1.0.1	Block	practice	15	20141103.112453	same	60	diff	0	7671
SMP	333	18	F	PSYC4802-20144	1.0.1	Block	practice	16	20141103.112503	diff	20	same	0	3946
SMP	333	18	F	PSYC4802-20144	1.0.1	Block	practice	17	20141103.112509	same	20	same	1	11162
SMP	333	18	F	PSYC4802-20144	1.0.1	Block	practice	18	20141103.112522	diff	60	diff	1	5786
SMP	333	18	F	PSYC4802-20144	1.0.1	Block	practice	19	20141103.112530	same	100	diff	0	1731
SMP	333	18	F	PSYC4802-20144	1.0.1	Block	practice	20	20141103.112534	diff	60	diff	1	1596
SMP	333	18	F	PSYC4802-20144	1.0.1	Block	practice	21	20141103.112537	diff	20	same	0	1756
SMP	333	18	F	PSYC4802-20144	1.0.1	Block	practice	22	20141103.112541	same	100	same	1	2701
SMP	333	18	F	PSYC4802-20144	1.0.1	Block	practice	23	20141103.112546	same	100	same	1	3201
SMP	333	18	F	PSYC4802-20144	1.0.1	Block	practice	24	20141103.112551	same	20	same	1	4851
SMP	333	18	F	PSYC4802-20144	1.0.1	Block	practice	25	20141103.112558	diff	20	diff	1	9777
SMP	333	18	F	PSYC4802-20144	1.0.1	Block	practice	26	20141103.112610	same	60	same	1	6067
SMP	333	18	F	PSYC4802-20144	1.0.1	Block	practice	27	20141103.112618	same	60	same	1	13997
SMP	333	18	F	PSYC4802-20144	1.0.1	Block	practice	28	20141103.112634	same	60	same	1	33073
SMP	333	18	F	PSYC4802-20144	1.0.1	Block	practice	29	20141103.112709	same	100	diff	0	13172
SMP	333	18	F	PSYC4802-20144	1.0.1	Block	practice	30	20141103.112724	diff	60	diff	1	791
SMP	333	18	F	PSYC4802-20144	1.0.1	Block	exp	31	20141103.112727	diff	60	diff	1	1767
SMP	333	18	F	PSYC4802-20144	1.0.1	Block	exp	32	20141103.112731	same	100	diff	0	3021
SMP	333	18	F	PSYC4802-20144	1.0.1	Block	exp	33	20141103.112736	same	100	same	1	14472
SMP	333	18	F	PSYC4802-20144	1.0.1	Block	exp	34	20141103.112752	same	100	same	1	16853
SMP	333	18	F	PSYC4802-20144	1.0.1	Block	exp	35	20141103.112811	diff	100	diff	1	17727
SMP	333	18	F	PSYC4802-20144	1.0.1	Block	exp	36	20141103.112831	same	100	diff	0	6341
SMP	333	18	F	PSYC4802-20144	1.0.1	Block	exp	37	20141103.112839	same	60	same	1	2026
SMP	333	18	F	PSYC4802-20144	1.0.1	Block	exp	38	20141103.112843	same	100	same	1	2936
SMP	333	18	F	PSYC4802-20144	1.0.1	Block	exp	39	20141103.112848	same	100	diff	0	24122
SMP	333	18	F	PSYC4802-20144	1.0.1	Block	exp	40	20141103.112914	diff	20	same	0	701
SMP	333	18	F	PSYC4802-20144	1.0.1	Block	exp	41	20141103.112917	same	60	diff	0	321
SMP	333	18	F	PSYC4802-20144	1.0.1	Block	exp	42	20141103.112920	same	100	same	1	471
SMP	333	18	F	PSYC4802-20144	1.0.1	Block	exp	43	20141103.112922	same	20	same	1	311
SMP	333	18	F	PSYC4802-20144	1.0.1	Block	exp	44	20141103.112924	diff	100	same	0	6877
SMP	333	18	F	PSYC4802-20144	1.0.1	Block	exp	45	20141103.112933	diff	60	diff	1	651
SMP	333	18	F	PSYC4802-20144	1.0.1	Block	exp	46	20141103.112936	diff	100	diff	1	266
SMP	333	18	F	PSYC4802-20144	1.0.1	Block	exp	47	20141103.112938	same	20	same	1	3481
SMP	333	18	F	PSYC4802-20144	1.0.1	Block	exp	48	20141103.112944	same	20	same	1	3236
SMP	333	18	F	PSYC4802-20144	1.0.1	Block	exp	49	20141103.112949	same	20	same	1	3791
SMP	333	18	F	PSYC4802-20144	1.0.1	Block	exp	50	20141103.112955	diff	20	same	0	9861
SMP	333	18	F	PSYC4802-20144	1.0.1	Block	exp	51	20141103.113009	same	100	diff	0	2671
SMP	333	18	F	PSYC4802-20144	1.0.1	Block	exp	52	20141103.113014	diff	20	same	0	291
SMP	333	18	F	PSYC4802-20144	1.0.1	Block	exp	53	20141103.113016	diff	60	same	0	291
SMP	333	18	F	PSYC4802-20144	1.0.1	Block	exp	54	20141103.113018	same	60	diff	0	531
SMP	333	18	F	PSYC4802-20144	1.0.1	Block	exp	55	20141103.113021	diff	20	same	0	291
SMP	333	18	F	PSYC4802-20144	1.0.1	Block	exp	56	20141103.113023	same	20	same	1	251
SMP	333	18	F	PSYC4802-20144	1.0.1	Block	exp	57	20141103.113026	same	20	same	1	347
SMP	333	18	F	PSYC4802-20144	1.0.1	Block	exp	58	20141103.113028	same	20	diff	0	5041
SMP	333	18	F	PSYC4802-20144	1.0.1	Block	exp	59	20141103.113035	diff	60	same	0	396
SMP	333	18	F	PSYC4802-20144	1.0.1	Block	exp	60	20141103.113037	same	60	same	1	3381
SMP	333	18	F	PSYC4802-20144	1.0.1	Block	exp	61	20141103.113043	same	100	diff	0	5651
SMP	333	18	F	PSYC4802-20144	1.0.1	Block	exp	62	20141103.113050	same	20	same	1	1546
SMP	333	18	F	PSYC4802-20144	1.0.1	Block	exp	63	20141103.113054	same	100	same	1	2432
SMP	333	18	F	PSYC4802-20144	1.0.1	Block	exp	64	20141103.113058	same	20	same	1	3117
SMP	333	18	F	PSYC4802-20144	1.0.1	Block	exp	65	20141103.113104	diff	100	same	0	5167
SMP	333	18	F	PSYC4802-20144	1.0.1	Block	exp	66	20141103.113111	diff	20	diff	1	1342
SMP	333	18	F	PSYC4802-20144	1.0.1	Block	exp	67	20141103.113114	diff	100	same	0	10176
SMP	333	18	F	PSYC4802-20144	1.0.1	Block	exp	68	20141103.113126	diff	60	diff	1	371
SMP	333	18	F	PSYC4802-20144	1.0.1	Block	exp	69	20141103.113129	same	60	diff	0	1216
SMP	333	18	F	PSYC4802-20144	1.0.1	Block	exp	70	20141103.113132	same	100	diff	0	1136
SMP	333	18	F	PSYC4802-20144	1.0.1	Block	exp	71	20141103.113135	diff	100	same	0	3511
SMP	333	18	F	PSYC4802-20144	1.0.1	Block	exp	72	20141103.113141	diff	60	same	0	651
SMP	333	18	F	PSYC4802-20144	1.0.1	Block	exp	73	20141103.113143	same	20	diff	0	361
SMP	333	18	F	PSYC4802-20144	1.0.1	Block	exp	74	20141103.113146	diff	100	same	0	451
SMP	333	18	F	PSYC4802-20144	1.0.1	Block	exp	75	20141103.113148	same	100	same	1	622
SMP	333	18	F	PSYC4802-20144	1.0.1	Block	exp	76	20141103.113151	diff	100	same	0	271
SMP	333	18	F	PSYC4802-20144	1.0.1	Block	exp	77	20141103.113153	diff	20	same	0	736
SMP	333	18	F	PSYC4802-20144	1.0.1	Block	exp	78	20141103.113156	same	60	diff	0	266
SMP	333	18	F	PSYC4802-20144	1.0.1	Block	exp	79	20141103.113158	same	60	diff	0	422
SMP	333	18	F	PSYC4802-20144	1.0.1	Block	exp	80	20141103.113201	diff	60	same	0	1536
SMP	333	18	F	PSYC4802-20144	1.0.1	Block	exp	81	20141103.113204	diff	20	diff	1	401
SMP	333	18	F	PSYC4802-20144	1.0.1	Block	exp	82	20141103.113207	same	20	diff	0	761
SMP	333	18	F	PSYC4802-20144	1.0.1	Block	exp	83	20141103.113209	diff	100	diff	1	341
SMP	333	18	F	PSYC4802-20144	1.0.1	Block	exp	84	20141103.113212	same	20	diff	0	1411
SMP	333	18	F	PSYC4802-20144	1.0.1	Block	exp	85	20141103.113215	same	60	same	1	111
SMP	333	18	F	PSYC4802-20144	1.0.1	Block	exp	86	20141103.113218	diff	20	same	0	2191
SMP	333	18	F	PSYC4802-20144	1.0.1	Block	exp	87	20141103.113222	diff	20	same	0	4171
SMP	333	18	F	PSYC4802-20144	1.0.1	Block	exp	88	20141103.113228	diff	60	same	0	10546
SMP	333	18	F	PSYC4802-20144	1.0.1	Block	exp	89	20141103.113241	same	100	diff	0	971
SMP	333	18	F	PSYC4802-20144	1.0.1	Block	exp	90	20141103.113243	same	100	same	1	2206
SMP	333	18	F	PSYC4802-20144	1.0.1	Block	exp	91	20141103.113248	diff	60	same	0	6736
SMP	333	18	F	PSYC4802-20144	1.0.1	Block	exp	92	20141103.113257	diff	100	diff	1	301
SMP	333	18	F	PSYC4802-20144	1.0.1	Block	exp	93	20141103.113259	diff	60	diff	1	1036
SMP	333	18	F	PSYC4802-20144	1.0.1	Block	exp	94	20141103.113302	diff	100	diff	1	2501
SMP	333	18	F	PSYC4802-20144	1.0.1	Block	exp	95	20141103.113306	diff	60	diff	1	3506
SMP	333	18	F	PSYC4802-20144	1.0.1	Block	exp	96	20141103.113312	diff	20	diff	1	16852
SMP	333	18	F	PSYC4802-20144	1.0.1	Block	exp	97	20141103.113331	same	100	diff	0	10846
SMP	333	18	F	PSYC4802-20144	1.0.1	Block	exp	98	20141103.113344	same	20	diff	0	276
SMP	333	18	F	PSYC4802-20144	1.0.1	Block	exp	99	20141103.113346	diff	20	same	0	1
SMP	333	18	F	PSYC4802-20144	1.0.1	Block	exp	100	20141103.113348	diff	100	diff	1	146
SMP	333	18	F	PSYC4802-20144	1.0.1	Block	exp	101	20141103.113352	same	60	same	1	811
SMP	333	18	F	PSYC4802-20144	1.0.1	Block	exp	102	20141103.113355	same	60	diff	0	1426
SMP	333	18	F	PSYC4802-20144	1.0.1	Block	exp	103	20141103.113358	diff	20	same	0	311
SMP	333	18	F	PSYC4802-20144	1.0.1	Block	exp	104	20141103.113400	same	60	diff	0	607
SMP	333	18	F	PSYC4802-20144	1.0.1	Block	exp	105	20141103.113403	same	60	same	1	1
SMP	333	18	F	PSYC4802-20144	1.0.1	Block	exp	106	20141103.113405	same	20	same	1	151
SMP	333	18	F	PSYC4802-20144	1.0.1	Block	exp	107	20141103.113407	same	60	same	1	187
SMP	333	18	F	PSYC4802-20144	1.0.1	Block	exp	108	20141103.113410	diff	100	diff	1	5581
SMP	333	18	F	PSYC4802-20144	1.0.1	Block	exp	109	20141103.113417	same	100	diff	0	10722
SMP	333	18	F	PSYC4802-20144	1.0.1	Block	exp	110	20141103.113430	same	60	same	1	526
SMP	333	18	F	PSYC4802-20144	1.0.1	Block	exp	111	20141103.113433	diff	20	same	0	316
SMP	333	18	F	PSYC4802-20144	1.0.1	Block	exp	112	20141103.113435	diff	60	diff	1	1
SMP	333	18	F	PSYC4802-20144	1.0.1	Block	exp	113	20141103.113437	diff	20	same	0	151
SMP	333	18	F	PSYC4802-20144	1.0.1	Block	exp	114	20141103.113439	diff	60	diff	1	1
SMP	333	18	F	PSYC4802-20144	1.0.1	Block	exp	115	20141103.113441	same	20	diff	0	106
SMP	333	18	F	PSYC4802-20144	1.0.1	Block	exp	116	20141103.113443	same	60	diff	0	196
SMP	333	18	F	PSYC4802-20144	1.0.1	Block	exp	117	20141103.113445	diff	100	same	0	256
SMP	333	18	F	PSYC4802-20144	1.0.1	Block	exp	118	20141103.113447	same	60	diff	0	1
SMP	333	18	F	PSYC4802-20144	1.0.1	Block	exp	119	20141103.113449	same	20	diff	0	1
SMP	333	18	F	PSYC4802-20144	1.0.1	Block	exp	120	20141103.113451	same	20	same	1	1
SMP	333	18	F	PSYC4802-20144	1.0.1	Block	exp	121	20141103.113453	diff	100	same	0	146
SMP	333	18	F	PSYC4802-20144	1.0.1	Block	exp	122	20141103.113456	same	100	same	1	17262
SMP	333	18	F	PSYC4802-20144	1.0.1	Block	exp	123	20141103.113515	diff	60	diff	1	7672
SMP	333	18	F	PSYC4802-20144	1.0.1	Block	exp	124	20141103.113525	diff	100	same	0	5206
SMP	333	18	F	PSYC4802-20144	1.0.1	Block	exp	125	20141103.113532	diff	20	diff	1	1471
SMP	333	18	F	PSYC4802-20144	1.0.1	Block	exp	126	20141103.113535	diff	100	diff	1	7466
SMP	333	18	F	PSYC4802-20144	1.0.1	Block	exp	127	20141103.113545	same	60	same	1	5506
SMP	333	18	F	PSYC4802-20144	1.0.1	Block	exp	128	20141103.113552	diff	60	same	0	4712
SMP	333	18	F	PSYC4802-20144	1.0.1	Block	exp	129	20141103.113559	diff	20	diff	1	236
SMP	333	18	F	PSYC4802-20144	1.0.1	Block	exp	130	20141103.113601	diff	100	diff	1	1
SMP	333	18	F	PSYC4802-20144	1.0.1	Block	exp	131	20141103.113603	diff	100	diff	1	1
SMP	333	18	F	PSYC4802-20144	1.0.1	Block	exp	132	20141103.113605	diff	20	diff	1	2011
SMP	333	18	F	PSYC4802-20144	1.0.1	Block	exp	133	20141103.113609	diff	60	same	0	4341
SMP	333	18	F	PSYC4802-20144	1.0.1	Block	exp	134	20141103.113615	diff	20	diff	1	141
SMP	333	18	F	PSYC4802-20144	1.0.1	Block	exp	135	20141103.113618	diff	60	diff	1	5507
SMP	333	18	F	PSYC4802-20144	1.0.1	Block	exp	136	20141103.113625	diff	60	diff	1	1801
SMP	333	18	F	PSYC4802-20144	1.0.1	Block	exp	137	20141103.113629	same	60	diff	0	4826
SMP	333	18	F	PSYC4802-20144	1.0.1	Block	exp	138	20141103.113636	diff	20	diff	1	36
SMP	333	18	F	PSYC4802-20144	1.0.1	Block	exp	139	20141103.113638	diff	20	diff	1	1
SMP	333	18	F	PSYC4802-20144	1.0.1	Block	exp	140	20141103.113640	same	20	same	1	4132
SMP	333	18	F	PSYC4802-20144	1.0.1	Block	exp	141	20141103.113646	same	100	same	1	8452
SMP	333	18	F	PSYC4802-20144	1.0.1	Block	exp	142	20141103.113656	same	100	diff	0	8807
SMP	333	18	F	PSYC4802-20144	1.0.1	Block	exp	143	20141103.113707	diff	60	same	0	3242
SMP	333	18	F	PSYC4802-20144	1.0.1	Block	exp	144	20141103.113712	same	100	diff	0	37
SMP	333	18	F	PSYC4802-20144	1.0.1	Block	exp	145	20141103.113714	diff	100	diff	1	507
SMP	333	18	F	PSYC4802-20144	1.0.1	Block	exp	146	20141103.113717	same	60	same	1	5817
SMP	333	18	F	PSYC4802-20144	1.0.1	Block	exp	147	20141103.113725	same	60	same	1	3336
SMP	333	18	F	PSYC4802-20144	1.0.1	Block	exp	148	20141103.113730	diff	60	same	0	3766
SMP	333	18	F	PSYC4802-20144	1.0.1	Block	exp	149	20141103.113736	same	20	diff	0	4411
SMP	333	18	F	PSYC4802-20144	1.0.1	Block	exp	150	20141103.113742	same	20	same	1	1191
