Experimenter	Subject	Age	Sex	Experiment	Version	Block	TrialType	Trial	Timestamp	SameDiff	Rotation	Response	Acc	RT
dt	54	20	m	PSYC4802-20142	1.0	Block	practice	1	20140423.120246	same	20	same	1	5397
dt	54	20	m	PSYC4802-20142	1.0	Block	practice	2	20140423.120254	diff	60	same	0	2813
dt	54	20	m	PSYC4802-20142	1.0	Block	practice	3	20140423.120259	same	60	same	1	6417
dt	54	20	m	PSYC4802-20142	1.0	Block	practice	4	20140423.120308	same	60	same	1	6581
dt	54	20	m	PSYC4802-20142	1.0	Block	practice	5	20140423.120316	diff	60	same	0	2656
dt	54	20	m	PSYC4802-20142	1.0	Block	practice	6	20140423.120321	same	60	same	1	9839
dt	54	20	m	PSYC4802-20142	1.0	Block	practice	7	20140423.120333	same	100	diff	0	2069
dt	54	20	m	PSYC4802-20142	1.0	Block	practice	8	20140423.120337	same	20	same	1	2128
dt	54	20	m	PSYC4802-20142	1.0	Block	practice	9	20140423.120341	diff	100	diff	1	3581
dt	54	20	m	PSYC4802-20142	1.0	Block	practice	10	20140423.120347	diff	100	diff	1	5977
dt	54	20	m	PSYC4802-20142	1.0	Block	practice	11	20140423.120355	same	100	diff	0	6599
dt	54	20	m	PSYC4802-20142	1.0	Block	practice	12	20140423.120403	diff	20	diff	1	5357
dt	54	20	m	PSYC4802-20142	1.0	Block	practice	13	20140423.120411	same	100	same	1	4390
dt	54	20	m	PSYC4802-20142	1.0	Block	practice	14	20140423.120417	same	20	same	1	4899
dt	54	20	m	PSYC4802-20142	1.0	Block	practice	15	20140423.120424	diff	60	diff	1	5761
dt	54	20	m	PSYC4802-20142	1.0	Block	practice	16	20140423.120432	diff	60	diff	1	3130
dt	54	20	m	PSYC4802-20142	1.0	Block	practice	17	20140423.120437	same	60	diff	0	6692
dt	54	20	m	PSYC4802-20142	1.0	Block	practice	18	20140423.120446	same	60	diff	0	5263
dt	54	20	m	PSYC4802-20142	1.0	Block	practice	19	20140423.120453	same	100	same	1	10290
dt	54	20	m	PSYC4802-20142	1.0	Block	practice	20	20140423.120506	diff	100	diff	1	7226
dt	54	20	m	PSYC4802-20142	1.0	Block	practice	21	20140423.120515	same	20	same	1	4225
dt	54	20	m	PSYC4802-20142	1.0	Block	practice	22	20140423.120521	diff	60	diff	1	7185
dt	54	20	m	PSYC4802-20142	1.0	Block	practice	23	20140423.120530	same	20	same	1	3892
dt	54	20	m	PSYC4802-20142	1.0	Block	practice	24	20140423.120536	same	100	diff	0	4367
dt	54	20	m	PSYC4802-20142	1.0	Block	practice	25	20140423.120543	diff	20	diff	1	8819
dt	54	20	m	PSYC4802-20142	1.0	Block	practice	26	20140423.120554	diff	100	diff	1	11093
dt	54	20	m	PSYC4802-20142	1.0	Block	practice	27	20140423.120607	diff	20	same	0	2621
dt	54	20	m	PSYC4802-20142	1.0	Block	practice	28	20140423.120611	diff	20	same	0	11462
dt	54	20	m	PSYC4802-20142	1.0	Block	practice	29	20140423.120625	diff	20	diff	1	4759
dt	54	20	m	PSYC4802-20142	1.0	Block	practice	30	20140423.120632	diff	100	diff	1	9247
dt	54	20	m	PSYC4802-20142	1.0	Block	exp	31	20140423.120643	same	60	same	1	8555
dt	54	20	m	PSYC4802-20142	1.0	Block	exp	32	20140423.120654	same	60	same	1	4700
dt	54	20	m	PSYC4802-20142	1.0	Block	exp	33	20140423.120700	same	60	same	1	5919
dt	54	20	m	PSYC4802-20142	1.0	Block	exp	34	20140423.120708	same	20	same	1	3423
dt	54	20	m	PSYC4802-20142	1.0	Block	exp	35	20140423.120714	same	100	same	1	6505
dt	54	20	m	PSYC4802-20142	1.0	Block	exp	36	20140423.120722	same	20	same	1	3552
dt	54	20	m	PSYC4802-20142	1.0	Block	exp	37	20140423.120728	same	60	same	1	3429
dt	54	20	m	PSYC4802-20142	1.0	Block	exp	38	20140423.120733	same	20	same	1	4208
dt	54	20	m	PSYC4802-20142	1.0	Block	exp	39	20140423.120740	diff	60	diff	1	6511
dt	54	20	m	PSYC4802-20142	1.0	Block	exp	40	20140423.120748	diff	60	diff	1	4243
dt	54	20	m	PSYC4802-20142	1.0	Block	exp	41	20140423.120755	same	60	same	1	2755
dt	54	20	m	PSYC4802-20142	1.0	Block	exp	42	20140423.120759	same	60	diff	0	2884
dt	54	20	m	PSYC4802-20142	1.0	Block	exp	43	20140423.120804	same	100	diff	0	6810
dt	54	20	m	PSYC4802-20142	1.0	Block	exp	44	20140423.120813	same	20	same	1	2971
dt	54	20	m	PSYC4802-20142	1.0	Block	exp	45	20140423.120818	diff	20	diff	1	11796
dt	54	20	m	PSYC4802-20142	1.0	Block	exp	46	20140423.120832	same	60	same	1	3429
dt	54	20	m	PSYC4802-20142	1.0	Block	exp	47	20140423.120837	diff	60	diff	1	7237
dt	54	20	m	PSYC4802-20142	1.0	Block	exp	48	20140423.120847	same	100	diff	0	3564
dt	54	20	m	PSYC4802-20142	1.0	Block	exp	49	20140423.120852	same	100	diff	0	4530
dt	54	20	m	PSYC4802-20142	1.0	Block	exp	50	20140423.120859	diff	60	diff	1	3886
dt	54	20	m	PSYC4802-20142	1.0	Block	exp	51	20140423.120911	same	20	same	1	2802
dt	54	20	m	PSYC4802-20142	1.0	Block	exp	52	20140423.120916	same	60	diff	0	5239
dt	54	20	m	PSYC4802-20142	1.0	Block	exp	53	20140423.120923	diff	100	diff	1	9142
dt	54	20	m	PSYC4802-20142	1.0	Block	exp	54	20140423.120934	same	100	diff	0	7301
dt	54	20	m	PSYC4802-20142	1.0	Block	exp	55	20140423.120943	diff	60	diff	1	5451
dt	54	20	m	PSYC4802-20142	1.0	Block	exp	56	20140423.120951	same	100	same	1	12071
dt	54	20	m	PSYC4802-20142	1.0	Block	exp	57	20140423.121005	same	100	diff	0	8562
dt	54	20	m	PSYC4802-20142	1.0	Block	exp	58	20140423.121016	diff	20	diff	1	7390
dt	54	20	m	PSYC4802-20142	1.0	Block	exp	59	20140423.121025	diff	100	same	0	9646
dt	54	20	m	PSYC4802-20142	1.0	Block	exp	60	20140423.121037	same	60	same	1	6060
dt	54	20	m	PSYC4802-20142	1.0	Block	exp	61	20140423.121045	diff	60	diff	1	5216
dt	54	20	m	PSYC4802-20142	1.0	Block	exp	62	20140423.121052	diff	100	diff	1	5427
dt	54	20	m	PSYC4802-20142	1.0	Block	exp	63	20140423.121100	same	100	diff	0	5380
dt	54	20	m	PSYC4802-20142	1.0	Block	exp	64	20140423.121107	same	20	same	1	5737
dt	54	20	m	PSYC4802-20142	1.0	Block	exp	65	20140423.121115	same	100	same	1	11017
dt	54	20	m	PSYC4802-20142	1.0	Block	exp	66	20140423.121128	same	100	same	1	6827
dt	54	20	m	PSYC4802-20142	1.0	Block	exp	67	20140423.121137	diff	60	diff	1	7671
dt	54	20	m	PSYC4802-20142	1.0	Block	exp	68	20140423.121147	diff	60	same	0	6950
dt	54	20	m	PSYC4802-20142	1.0	Block	exp	69	20140423.121156	diff	60	diff	1	9909
dt	54	20	m	PSYC4802-20142	1.0	Block	exp	70	20140423.121208	same	20	same	1	3909
dt	54	20	m	PSYC4802-20142	1.0	Block	exp	71	20140423.121214	diff	100	diff	1	8099
dt	54	20	m	PSYC4802-20142	1.0	Block	exp	72	20140423.121224	same	20	same	1	2925
dt	54	20	m	PSYC4802-20142	1.0	Block	exp	73	20140423.121229	same	60	same	1	4507
dt	54	20	m	PSYC4802-20142	1.0	Block	exp	74	20140423.121235	same	20	same	1	4243
dt	54	20	m	PSYC4802-20142	1.0	Block	exp	75	20140423.121242	same	60	same	1	3815
dt	54	20	m	PSYC4802-20142	1.0	Block	exp	76	20140423.121247	diff	100	diff	1	6493
dt	54	20	m	PSYC4802-20142	1.0	Block	exp	77	20140423.121256	same	60	same	1	11134
dt	54	20	m	PSYC4802-20142	1.0	Block	exp	78	20140423.121309	diff	60	diff	1	4524
dt	54	20	m	PSYC4802-20142	1.0	Block	exp	79	20140423.121316	diff	100	diff	1	6973
dt	54	20	m	PSYC4802-20142	1.0	Block	exp	80	20140423.121325	diff	100	diff	1	8790
dt	54	20	m	PSYC4802-20142	1.0	Block	exp	81	20140423.121336	diff	20	diff	1	8989
dt	54	20	m	PSYC4802-20142	1.0	Block	exp	82	20140423.121347	same	60	same	1	6159
dt	54	20	m	PSYC4802-20142	1.0	Block	exp	83	20140423.121355	same	100	same	1	7624
dt	54	20	m	PSYC4802-20142	1.0	Block	exp	84	20140423.121404	same	20	same	1	2772
dt	54	20	m	PSYC4802-20142	1.0	Block	exp	85	20140423.121409	diff	20	diff	1	5321
dt	54	20	m	PSYC4802-20142	1.0	Block	exp	86	20140423.121417	same	60	diff	0	7888
dt	54	20	m	PSYC4802-20142	1.0	Block	exp	87	20140423.121427	diff	20	diff	1	4261
dt	54	20	m	PSYC4802-20142	1.0	Block	exp	88	20140423.121433	diff	60	diff	1	6704
dt	54	20	m	PSYC4802-20142	1.0	Block	exp	89	20140423.121442	diff	20	diff	1	4243
dt	54	20	m	PSYC4802-20142	1.0	Block	exp	90	20140423.121448	same	60	same	1	5632
dt	54	20	m	PSYC4802-20142	1.0	Block	exp	91	20140423.121456	same	100	same	1	11005
dt	54	20	m	PSYC4802-20142	1.0	Block	exp	92	20140423.121509	same	20	same	1	2872
dt	54	20	m	PSYC4802-20142	1.0	Block	exp	93	20140423.121514	same	20	diff	0	4349
dt	54	20	m	PSYC4802-20142	1.0	Block	exp	94	20140423.121520	same	100	same	1	5848
dt	54	20	m	PSYC4802-20142	1.0	Block	exp	95	20140423.121528	diff	100	same	0	5210
dt	54	20	m	PSYC4802-20142	1.0	Block	exp	96	20140423.121535	diff	100	diff	1	3423
dt	54	20	m	PSYC4802-20142	1.0	Block	exp	97	20140423.121540	diff	20	diff	1	9136
dt	54	20	m	PSYC4802-20142	1.0	Block	exp	98	20140423.121552	same	100	same	1	5315
dt	54	20	m	PSYC4802-20142	1.0	Block	exp	99	20140423.121559	same	100	same	1	6329
dt	54	20	m	PSYC4802-20142	1.0	Block	exp	100	20140423.121607	same	20	same	1	3001
dt	54	20	m	PSYC4802-20142	1.0	Block	exp	101	20140423.121615	diff	100	diff	1	7759
dt	54	20	m	PSYC4802-20142	1.0	Block	exp	102	20140423.121625	diff	100	diff	1	4261
dt	54	20	m	PSYC4802-20142	1.0	Block	exp	103	20140423.121631	diff	20	diff	1	5333
dt	54	20	m	PSYC4802-20142	1.0	Block	exp	104	20140423.121638	diff	60	diff	1	6546
dt	54	20	m	PSYC4802-20142	1.0	Block	exp	105	20140423.121647	same	20	same	1	3259
dt	54	20	m	PSYC4802-20142	1.0	Block	exp	106	20140423.121652	diff	100	diff	1	5098
dt	54	20	m	PSYC4802-20142	1.0	Block	exp	107	20140423.121659	diff	100	diff	1	4055
dt	54	20	m	PSYC4802-20142	1.0	Block	exp	108	20140423.121705	diff	20	diff	1	3827
dt	54	20	m	PSYC4802-20142	1.0	Block	exp	109	20140423.121711	same	20	diff	0	2035
dt	54	20	m	PSYC4802-20142	1.0	Block	exp	110	20140423.121715	diff	100	diff	1	7911
dt	54	20	m	PSYC4802-20142	1.0	Block	exp	111	20140423.121725	diff	20	diff	1	7653
dt	54	20	m	PSYC4802-20142	1.0	Block	exp	112	20140423.121735	diff	100	diff	1	4934
dt	54	20	m	PSYC4802-20142	1.0	Block	exp	113	20140423.121742	diff	20	diff	1	6258
dt	54	20	m	PSYC4802-20142	1.0	Block	exp	114	20140423.121750	diff	100	same	0	5568
dt	54	20	m	PSYC4802-20142	1.0	Block	exp	115	20140423.121758	same	100	same	1	6540
dt	54	20	m	PSYC4802-20142	1.0	Block	exp	116	20140423.121807	same	60	same	1	4859
dt	54	20	m	PSYC4802-20142	1.0	Block	exp	117	20140423.121814	same	100	diff	0	4829
dt	54	20	m	PSYC4802-20142	1.0	Block	exp	118	20140423.121820	diff	100	diff	1	8193
dt	54	20	m	PSYC4802-20142	1.0	Block	exp	119	20140423.121831	diff	20	diff	1	4794
dt	54	20	m	PSYC4802-20142	1.0	Block	exp	120	20140423.121838	same	60	same	1	5222
dt	54	20	m	PSYC4802-20142	1.0	Block	exp	121	20140423.121845	same	20	same	1	4003
dt	54	20	m	PSYC4802-20142	1.0	Block	exp	122	20140423.121851	same	20	diff	0	5228
dt	54	20	m	PSYC4802-20142	1.0	Block	exp	123	20140423.121858	same	60	same	1	5134
dt	54	20	m	PSYC4802-20142	1.0	Block	exp	124	20140423.121905	same	100	same	1	11884
dt	54	20	m	PSYC4802-20142	1.0	Block	exp	125	20140423.121919	diff	100	diff	1	5234
dt	54	20	m	PSYC4802-20142	1.0	Block	exp	126	20140423.121926	same	20	same	1	3031
dt	54	20	m	PSYC4802-20142	1.0	Block	exp	127	20140423.121932	diff	60	same	0	3558
dt	54	20	m	PSYC4802-20142	1.0	Block	exp	128	20140423.121937	diff	60	diff	1	7255
dt	54	20	m	PSYC4802-20142	1.0	Block	exp	129	20140423.121946	same	100	same	1	4044
dt	54	20	m	PSYC4802-20142	1.0	Block	exp	130	20140423.121952	diff	20	diff	1	5105
dt	54	20	m	PSYC4802-20142	1.0	Block	exp	131	20140423.122000	diff	60	same	0	7220
dt	54	20	m	PSYC4802-20142	1.0	Block	exp	132	20140423.122009	diff	60	diff	1	4196
dt	54	20	m	PSYC4802-20142	1.0	Block	exp	133	20140423.122015	diff	20	diff	1	3921
dt	54	20	m	PSYC4802-20142	1.0	Block	exp	134	20140423.122021	diff	100	diff	1	4876
dt	54	20	m	PSYC4802-20142	1.0	Block	exp	135	20140423.122028	diff	20	diff	1	5667
dt	54	20	m	PSYC4802-20142	1.0	Block	exp	136	20140423.122036	same	60	diff	0	3434
dt	54	20	m	PSYC4802-20142	1.0	Block	exp	137	20140423.122041	diff	20	diff	1	6968
dt	54	20	m	PSYC4802-20142	1.0	Block	exp	138	20140423.122050	diff	60	diff	1	8392
dt	54	20	m	PSYC4802-20142	1.0	Block	exp	139	20140423.122101	diff	100	diff	1	5110
dt	54	20	m	PSYC4802-20142	1.0	Block	exp	140	20140423.122108	diff	60	diff	1	3276
dt	54	20	m	PSYC4802-20142	1.0	Block	exp	141	20140423.122113	diff	20	diff	1	7261
dt	54	20	m	PSYC4802-20142	1.0	Block	exp	142	20140423.122122	same	60	same	1	3259
dt	54	20	m	PSYC4802-20142	1.0	Block	exp	143	20140423.122128	diff	20	diff	1	4401
dt	54	20	m	PSYC4802-20142	1.0	Block	exp	144	20140423.122134	same	20	same	1	2380
dt	54	20	m	PSYC4802-20142	1.0	Block	exp	145	20140423.122139	diff	60	diff	1	5433
dt	54	20	m	PSYC4802-20142	1.0	Block	exp	146	20140423.122146	diff	20	diff	1	6048
dt	54	20	m	PSYC4802-20142	1.0	Block	exp	147	20140423.122154	diff	60	diff	1	3353
dt	54	20	m	PSYC4802-20142	1.0	Block	exp	148	20140423.122200	diff	20	diff	1	4202
dt	54	20	m	PSYC4802-20142	1.0	Block	exp	149	20140423.122206	same	20	same	1	4929
dt	54	20	m	PSYC4802-20142	1.0	Block	exp	150	20140423.122213	same	100	same	1	3253
