Experimenter	Subject	Age	Sex	Experiment	Version	Block	TrialType	Trial	Timestamp	SameDiff	Rotation	Response	Acc	RT
KA	114	20	m	PSYC4802-20142	1.0	Block	practice	1	20140430.113917	same	20	same	1	4518
KA	114	20	m	PSYC4802-20142	1.0	Block	practice	2	20140430.113923	diff	60	same	0	2304
KA	114	20	m	PSYC4802-20142	1.0	Block	practice	3	20140430.113927	same	100	same	1	12604
KA	114	20	m	PSYC4802-20142	1.0	Block	practice	4	20140430.113942	same	20	same	1	3089
KA	114	20	m	PSYC4802-20142	1.0	Block	practice	5	20140430.113947	same	60	diff	0	5409
KA	114	20	m	PSYC4802-20142	1.0	Block	practice	6	20140430.113954	diff	100	same	0	4601
KA	114	20	m	PSYC4802-20142	1.0	Block	practice	7	20140430.114001	same	100	diff	0	10829
KA	114	20	m	PSYC4802-20142	1.0	Block	practice	8	20140430.114014	diff	100	same	0	4759
KA	114	20	m	PSYC4802-20142	1.0	Block	practice	9	20140430.114021	same	100	same	1	10120
KA	114	20	m	PSYC4802-20142	1.0	Block	practice	10	20140430.114033	diff	100	same	0	4179
KA	114	20	m	PSYC4802-20142	1.0	Block	practice	11	20140430.114039	diff	100	same	0	7583
KA	114	20	m	PSYC4802-20142	1.0	Block	practice	12	20140430.114049	diff	20	diff	1	4221
KA	114	20	m	PSYC4802-20142	1.0	Block	practice	13	20140430.114055	diff	100	diff	1	10940
KA	114	20	m	PSYC4802-20142	1.0	Block	practice	14	20140430.114108	same	20	same	1	4659
KA	114	20	m	PSYC4802-20142	1.0	Block	practice	15	20140430.114115	diff	20	diff	1	12551
KA	114	20	m	PSYC4802-20142	1.0	Block	practice	16	20140430.114129	diff	20	diff	1	4156
KA	114	20	m	PSYC4802-20142	1.0	Block	practice	17	20140430.114135	same	60	same	1	6007
KA	114	20	m	PSYC4802-20142	1.0	Block	practice	18	20140430.114143	diff	60	diff	1	3077
KA	114	20	m	PSYC4802-20142	1.0	Block	practice	19	20140430.114148	diff	60	diff	1	10723
KA	114	20	m	PSYC4802-20142	1.0	Block	practice	20	20140430.114201	diff	60	diff	1	8017
KA	114	20	m	PSYC4802-20142	1.0	Block	practice	21	20140430.114211	same	60	same	1	9153
KA	114	20	m	PSYC4802-20142	1.0	Block	practice	22	20140430.114222	diff	60	diff	1	3130
KA	114	20	m	PSYC4802-20142	1.0	Block	practice	23	20140430.114228	diff	20	diff	1	7489
KA	114	20	m	PSYC4802-20142	1.0	Block	practice	24	20140430.114237	same	20	same	1	6599
KA	114	20	m	PSYC4802-20142	1.0	Block	practice	25	20140430.114246	diff	20	diff	1	4928
KA	114	20	m	PSYC4802-20142	1.0	Block	practice	26	20140430.114253	same	60	same	1	5989
KA	114	20	m	PSYC4802-20142	1.0	Block	practice	27	20140430.114301	same	100	same	1	7366
KA	114	20	m	PSYC4802-20142	1.0	Block	practice	28	20140430.114310	same	20	same	1	3904
KA	114	20	m	PSYC4802-20142	1.0	Block	practice	29	20140430.114316	same	60	same	1	3130
KA	114	20	m	PSYC4802-20142	1.0	Block	practice	30	20140430.114321	same	100	diff	0	7900
KA	114	20	m	PSYC4802-20142	1.0	Block	exp	31	20140430.114331	diff	60	same	0	11485
KA	114	20	m	PSYC4802-20142	1.0	Block	exp	32	20140430.114345	diff	20	diff	1	5069
KA	114	20	m	PSYC4802-20142	1.0	Block	exp	33	20140430.114352	same	20	same	1	3036
KA	114	20	m	PSYC4802-20142	1.0	Block	exp	34	20140430.114357	diff	100	diff	1	5767
KA	114	20	m	PSYC4802-20142	1.0	Block	exp	35	20140430.114405	diff	20	diff	1	6434
KA	114	20	m	PSYC4802-20142	1.0	Block	exp	36	20140430.114413	same	20	same	1	4044
KA	114	20	m	PSYC4802-20142	1.0	Block	exp	37	20140430.114419	same	60	same	1	3962
KA	114	20	m	PSYC4802-20142	1.0	Block	exp	38	20140430.114425	same	100	same	1	22272
KA	114	20	m	PSYC4802-20142	1.0	Block	exp	39	20140430.114450	same	100	same	1	6692
KA	114	20	m	PSYC4802-20142	1.0	Block	exp	40	20140430.114459	same	60	same	1	7847
KA	114	20	m	PSYC4802-20142	1.0	Block	exp	41	20140430.114508	same	20	same	1	3405
KA	114	20	m	PSYC4802-20142	1.0	Block	exp	42	20140430.114514	diff	100	same	0	6529
KA	114	20	m	PSYC4802-20142	1.0	Block	exp	43	20140430.114522	same	20	same	1	2855
KA	114	20	m	PSYC4802-20142	1.0	Block	exp	44	20140430.114527	diff	100	diff	1	9985
KA	114	20	m	PSYC4802-20142	1.0	Block	exp	45	20140430.114539	diff	20	diff	1	7290
KA	114	20	m	PSYC4802-20142	1.0	Block	exp	46	20140430.114549	same	100	same	1	9077
KA	114	20	m	PSYC4802-20142	1.0	Block	exp	47	20140430.114600	diff	20	diff	1	8555
KA	114	20	m	PSYC4802-20142	1.0	Block	exp	48	20140430.114610	same	60	same	1	5093
KA	114	20	m	PSYC4802-20142	1.0	Block	exp	49	20140430.114617	same	20	same	1	2726
KA	114	20	m	PSYC4802-20142	1.0	Block	exp	50	20140430.114622	diff	100	same	0	4677
KA	114	20	m	PSYC4802-20142	1.0	Block	exp	51	20140430.114633	diff	20	diff	1	5650
KA	114	20	m	PSYC4802-20142	1.0	Block	exp	52	20140430.114640	same	60	same	1	4103
KA	114	20	m	PSYC4802-20142	1.0	Block	exp	53	20140430.114646	same	60	diff	0	4654
KA	114	20	m	PSYC4802-20142	1.0	Block	exp	54	20140430.114653	same	20	same	1	4900
KA	114	20	m	PSYC4802-20142	1.0	Block	exp	55	20140430.114700	diff	100	same	0	5972
KA	114	20	m	PSYC4802-20142	1.0	Block	exp	56	20140430.114708	diff	20	diff	1	7120
KA	114	20	m	PSYC4802-20142	1.0	Block	exp	57	20140430.114717	diff	100	diff	1	7823
KA	114	20	m	PSYC4802-20142	1.0	Block	exp	58	20140430.114727	same	60	same	1	3786
KA	114	20	m	PSYC4802-20142	1.0	Block	exp	59	20140430.114733	same	100	same	1	5339
KA	114	20	m	PSYC4802-20142	1.0	Block	exp	60	20140430.114740	same	100	same	1	5978
KA	114	20	m	PSYC4802-20142	1.0	Block	exp	61	20140430.114748	diff	20	diff	1	9223
KA	114	20	m	PSYC4802-20142	1.0	Block	exp	62	20140430.114759	diff	60	same	0	15757
KA	114	20	m	PSYC4802-20142	1.0	Block	exp	63	20140430.114817	same	20	same	1	3792
KA	114	20	m	PSYC4802-20142	1.0	Block	exp	64	20140430.114823	same	100	same	1	5205
KA	114	20	m	PSYC4802-20142	1.0	Block	exp	65	20140430.114830	same	20	same	1	2368
KA	114	20	m	PSYC4802-20142	1.0	Block	exp	66	20140430.114835	diff	20	diff	1	4331
KA	114	20	m	PSYC4802-20142	1.0	Block	exp	67	20140430.114841	same	60	same	1	3259
KA	114	20	m	PSYC4802-20142	1.0	Block	exp	68	20140430.114846	diff	60	diff	1	2491
KA	114	20	m	PSYC4802-20142	1.0	Block	exp	69	20140430.114851	diff	100	diff	1	6721
KA	114	20	m	PSYC4802-20142	1.0	Block	exp	70	20140430.114900	diff	60	diff	1	8620
KA	114	20	m	PSYC4802-20142	1.0	Block	exp	71	20140430.114910	same	20	same	1	2726
KA	114	20	m	PSYC4802-20142	1.0	Block	exp	72	20140430.114915	same	60	same	1	4588
KA	114	20	m	PSYC4802-20142	1.0	Block	exp	73	20140430.114922	diff	60	diff	1	6066
KA	114	20	m	PSYC4802-20142	1.0	Block	exp	74	20140430.114930	diff	20	diff	1	8385
KA	114	20	m	PSYC4802-20142	1.0	Block	exp	75	20140430.114940	same	60	same	1	5005
KA	114	20	m	PSYC4802-20142	1.0	Block	exp	76	20140430.114947	diff	100	diff	1	3558
KA	114	20	m	PSYC4802-20142	1.0	Block	exp	77	20140430.114953	same	60	same	1	2749
KA	114	20	m	PSYC4802-20142	1.0	Block	exp	78	20140430.114958	diff	60	diff	1	3212
KA	114	20	m	PSYC4802-20142	1.0	Block	exp	79	20140430.115003	same	100	same	1	10108
KA	114	20	m	PSYC4802-20142	1.0	Block	exp	80	20140430.115015	diff	60	same	0	4185
KA	114	20	m	PSYC4802-20142	1.0	Block	exp	81	20140430.115021	same	60	same	1	4988
KA	114	20	m	PSYC4802-20142	1.0	Block	exp	82	20140430.115028	diff	60	diff	1	5222
KA	114	20	m	PSYC4802-20142	1.0	Block	exp	83	20140430.115035	same	20	same	1	2403
KA	114	20	m	PSYC4802-20142	1.0	Block	exp	84	20140430.115040	diff	100	same	0	4437
KA	114	20	m	PSYC4802-20142	1.0	Block	exp	85	20140430.115046	diff	60	diff	1	1888
KA	114	20	m	PSYC4802-20142	1.0	Block	exp	86	20140430.115050	same	60	same	1	6686
KA	114	20	m	PSYC4802-20142	1.0	Block	exp	87	20140430.115059	same	100	diff	0	5837
KA	114	20	m	PSYC4802-20142	1.0	Block	exp	88	20140430.115107	diff	60	diff	1	4337
KA	114	20	m	PSYC4802-20142	1.0	Block	exp	89	20140430.115113	same	60	same	1	2620
KA	114	20	m	PSYC4802-20142	1.0	Block	exp	90	20140430.115118	same	20	same	1	3270
KA	114	20	m	PSYC4802-20142	1.0	Block	exp	91	20140430.115123	same	20	same	1	2497
KA	114	20	m	PSYC4802-20142	1.0	Block	exp	92	20140430.115128	diff	60	diff	1	5561
KA	114	20	m	PSYC4802-20142	1.0	Block	exp	93	20140430.115135	diff	20	diff	1	5855
KA	114	20	m	PSYC4802-20142	1.0	Block	exp	94	20140430.115143	diff	100	diff	1	5105
KA	114	20	m	PSYC4802-20142	1.0	Block	exp	95	20140430.115150	diff	20	diff	1	2398
KA	114	20	m	PSYC4802-20142	1.0	Block	exp	96	20140430.115155	same	100	diff	0	6241
KA	114	20	m	PSYC4802-20142	1.0	Block	exp	97	20140430.115203	same	20	same	1	3704
KA	114	20	m	PSYC4802-20142	1.0	Block	exp	98	20140430.115209	diff	60	diff	1	4015
KA	114	20	m	PSYC4802-20142	1.0	Block	exp	99	20140430.115215	same	60	same	1	5046
KA	114	20	m	PSYC4802-20142	1.0	Block	exp	100	20140430.115222	diff	60	diff	1	3136
KA	114	20	m	PSYC4802-20142	1.0	Block	exp	101	20140430.115230	diff	20	same	0	5965
KA	114	20	m	PSYC4802-20142	1.0	Block	exp	102	20140430.115238	diff	20	diff	1	3874
KA	114	20	m	PSYC4802-20142	1.0	Block	exp	103	20140430.115244	same	60	same	1	3358
KA	114	20	m	PSYC4802-20142	1.0	Block	exp	104	20140430.115250	same	60	same	1	2650
KA	114	20	m	PSYC4802-20142	1.0	Block	exp	105	20140430.115254	same	20	same	1	2233
KA	114	20	m	PSYC4802-20142	1.0	Block	exp	106	20140430.115259	same	20	same	1	3838
KA	114	20	m	PSYC4802-20142	1.0	Block	exp	107	20140430.115305	diff	100	diff	1	5151
KA	114	20	m	PSYC4802-20142	1.0	Block	exp	108	20140430.115312	diff	20	diff	1	3071
KA	114	20	m	PSYC4802-20142	1.0	Block	exp	109	20140430.115317	diff	60	diff	1	3166
KA	114	20	m	PSYC4802-20142	1.0	Block	exp	110	20140430.115322	same	20	same	1	1864
KA	114	20	m	PSYC4802-20142	1.0	Block	exp	111	20140430.115326	diff	100	diff	1	3106
KA	114	20	m	PSYC4802-20142	1.0	Block	exp	112	20140430.115331	diff	100	diff	1	13437
KA	114	20	m	PSYC4802-20142	1.0	Block	exp	113	20140430.115347	same	20	same	1	3101
KA	114	20	m	PSYC4802-20142	1.0	Block	exp	114	20140430.115352	diff	20	diff	1	2216
KA	114	20	m	PSYC4802-20142	1.0	Block	exp	115	20140430.115356	diff	100	diff	1	2468
KA	114	20	m	PSYC4802-20142	1.0	Block	exp	116	20140430.115400	same	100	same	1	6077
KA	114	20	m	PSYC4802-20142	1.0	Block	exp	117	20140430.115409	diff	20	same	0	5462
KA	114	20	m	PSYC4802-20142	1.0	Block	exp	118	20140430.115416	same	100	diff	0	5890
KA	114	20	m	PSYC4802-20142	1.0	Block	exp	119	20140430.115424	same	100	same	1	3335
KA	114	20	m	PSYC4802-20142	1.0	Block	exp	120	20140430.115429	diff	20	same	0	6746
KA	114	20	m	PSYC4802-20142	1.0	Block	exp	121	20140430.115438	diff	20	diff	1	6247
KA	114	20	m	PSYC4802-20142	1.0	Block	exp	122	20140430.115446	diff	100	diff	1	2544
KA	114	20	m	PSYC4802-20142	1.0	Block	exp	123	20140430.115451	same	100	same	1	4642
KA	114	20	m	PSYC4802-20142	1.0	Block	exp	124	20140430.115458	same	100	same	1	4313
KA	114	20	m	PSYC4802-20142	1.0	Block	exp	125	20140430.115504	same	60	same	1	4091
KA	114	20	m	PSYC4802-20142	1.0	Block	exp	126	20140430.115510	diff	60	diff	1	3305
KA	114	20	m	PSYC4802-20142	1.0	Block	exp	127	20140430.115515	diff	60	diff	1	2462
KA	114	20	m	PSYC4802-20142	1.0	Block	exp	128	20140430.115520	diff	100	diff	1	7436
KA	114	20	m	PSYC4802-20142	1.0	Block	exp	129	20140430.115529	diff	100	diff	1	3604
KA	114	20	m	PSYC4802-20142	1.0	Block	exp	130	20140430.115535	same	100	same	1	7700
KA	114	20	m	PSYC4802-20142	1.0	Block	exp	131	20140430.115545	same	20	same	1	2005
KA	114	20	m	PSYC4802-20142	1.0	Block	exp	132	20140430.115549	diff	20	diff	1	2937
KA	114	20	m	PSYC4802-20142	1.0	Block	exp	133	20140430.115554	same	60	same	1	3171
KA	114	20	m	PSYC4802-20142	1.0	Block	exp	134	20140430.115559	diff	60	diff	1	3792
KA	114	20	m	PSYC4802-20142	1.0	Block	exp	135	20140430.115605	diff	100	diff	1	2720
KA	114	20	m	PSYC4802-20142	1.0	Block	exp	136	20140430.115609	same	100	same	1	4015
KA	114	20	m	PSYC4802-20142	1.0	Block	exp	137	20140430.115616	diff	100	diff	1	3728
KA	114	20	m	PSYC4802-20142	1.0	Block	exp	138	20140430.115621	same	20	same	1	3698
KA	114	20	m	PSYC4802-20142	1.0	Block	exp	139	20140430.115627	same	100	same	1	6118
KA	114	20	m	PSYC4802-20142	1.0	Block	exp	140	20140430.115635	same	60	same	1	4372
KA	114	20	m	PSYC4802-20142	1.0	Block	exp	141	20140430.115642	diff	20	diff	1	2878
KA	114	20	m	PSYC4802-20142	1.0	Block	exp	142	20140430.115647	diff	100	diff	1	2514
KA	114	20	m	PSYC4802-20142	1.0	Block	exp	143	20140430.115651	diff	60	diff	1	2298
KA	114	20	m	PSYC4802-20142	1.0	Block	exp	144	20140430.115655	same	60	same	1	2169
KA	114	20	m	PSYC4802-20142	1.0	Block	exp	145	20140430.115700	same	100	same	1	3188
KA	114	20	m	PSYC4802-20142	1.0	Block	exp	146	20140430.115705	diff	60	diff	1	3453
KA	114	20	m	PSYC4802-20142	1.0	Block	exp	147	20140430.115710	same	100	diff	0	3763
KA	114	20	m	PSYC4802-20142	1.0	Block	exp	148	20140430.115716	same	100	same	1	6546
KA	114	20	m	PSYC4802-20142	1.0	Block	exp	149	20140430.115725	same	20	same	1	3007
KA	114	20	m	PSYC4802-20142	1.0	Block	exp	150	20140430.115730	diff	60	diff	1	1776
