Experimenter	Subject	Age	Sex	Experiment	Version	Block	TrialType	Trial	Timestamp	SameDiff	Rotation	Response	Acc	RT
SS	30	18	F	PSYC4802-20142	1.0	Block	practice	1	20140421.114840	diff	20	diff	1	10958
SS	30	18	F	PSYC4802-20142	1.0	Block	practice	2	20140421.114853	same	100	same	1	6504
SS	30	18	F	PSYC4802-20142	1.0	Block	practice	3	20140421.114901	diff	20	diff	1	3007
SS	30	18	F	PSYC4802-20142	1.0	Block	practice	4	20140421.114906	same	60	same	1	2837
SS	30	18	F	PSYC4802-20142	1.0	Block	practice	5	20140421.114911	diff	100	same	0	2895
SS	30	18	F	PSYC4802-20142	1.0	Block	practice	6	20140421.114916	same	20	same	1	5134
SS	30	18	F	PSYC4802-20142	1.0	Block	practice	7	20140421.114923	diff	20	diff	1	2708
SS	30	18	F	PSYC4802-20142	1.0	Block	practice	8	20140421.114928	same	100	diff	0	5356
SS	30	18	F	PSYC4802-20142	1.0	Block	practice	9	20140421.114935	same	100	same	1	7747
SS	30	18	F	PSYC4802-20142	1.0	Block	practice	10	20140421.114945	diff	20	same	0	5058
SS	30	18	F	PSYC4802-20142	1.0	Block	practice	11	20140421.114952	diff	60	diff	1	9898
SS	30	18	F	PSYC4802-20142	1.0	Block	practice	12	20140421.115004	diff	60	diff	1	7033
SS	30	18	F	PSYC4802-20142	1.0	Block	practice	13	20140421.115013	same	60	diff	0	8866
SS	30	18	F	PSYC4802-20142	1.0	Block	practice	14	20140421.115024	same	60	same	1	13729
SS	30	18	F	PSYC4802-20142	1.0	Block	practice	15	20140421.115040	same	20	same	1	4372
SS	30	18	F	PSYC4802-20142	1.0	Block	practice	16	20140421.115046	same	100	same	1	11110
SS	30	18	F	PSYC4802-20142	1.0	Block	practice	17	20140421.115059	diff	100	same	0	9838
SS	30	18	F	PSYC4802-20142	1.0	Block	practice	18	20140421.115111	diff	20	same	0	8796
SS	30	18	F	PSYC4802-20142	1.0	Block	practice	19	20140421.115122	diff	60	diff	1	11380
SS	30	18	F	PSYC4802-20142	1.0	Block	practice	20	20140421.115135	same	100	same	1	5808
SS	30	18	F	PSYC4802-20142	1.0	Block	practice	21	20140421.115143	same	20	same	1	4911
SS	30	18	F	PSYC4802-20142	1.0	Block	practice	22	20140421.115150	diff	100	diff	1	8549
SS	30	18	F	PSYC4802-20142	1.0	Block	practice	23	20140421.115201	same	20	same	1	5778
SS	30	18	F	PSYC4802-20142	1.0	Block	practice	24	20140421.115208	diff	60	diff	1	8157
SS	30	18	F	PSYC4802-20142	1.0	Block	practice	25	20140421.115219	same	60	same	1	4648
SS	30	18	F	PSYC4802-20142	1.0	Block	practice	26	20140421.115225	diff	100	diff	1	4460
SS	30	18	F	PSYC4802-20142	1.0	Block	practice	27	20140421.115232	same	20	same	1	4056
SS	30	18	F	PSYC4802-20142	1.0	Block	practice	28	20140421.115238	same	60	same	1	3318
SS	30	18	F	PSYC4802-20142	1.0	Block	practice	29	20140421.115243	diff	100	diff	1	3177
SS	30	18	F	PSYC4802-20142	1.0	Block	practice	30	20140421.115248	diff	60	same	0	7829
SS	30	18	F	PSYC4802-20142	1.0	Block	exp	31	20140421.115258	same	100	same	1	5409
SS	30	18	F	PSYC4802-20142	1.0	Block	exp	32	20140421.115306	diff	20	diff	1	6141
SS	30	18	F	PSYC4802-20142	1.0	Block	exp	33	20140421.115314	same	100	diff	0	5421
SS	30	18	F	PSYC4802-20142	1.0	Block	exp	34	20140421.115321	diff	20	diff	1	4290
SS	30	18	F	PSYC4802-20142	1.0	Block	exp	35	20140421.115327	same	100	same	1	3294
SS	30	18	F	PSYC4802-20142	1.0	Block	exp	36	20140421.115333	diff	20	diff	1	5427
SS	30	18	F	PSYC4802-20142	1.0	Block	exp	37	20140421.115340	same	60	same	1	7114
SS	30	18	F	PSYC4802-20142	1.0	Block	exp	38	20140421.115349	diff	100	diff	1	5374
SS	30	18	F	PSYC4802-20142	1.0	Block	exp	39	20140421.115357	diff	60	diff	1	5456
SS	30	18	F	PSYC4802-20142	1.0	Block	exp	40	20140421.115404	same	100	same	1	3909
SS	30	18	F	PSYC4802-20142	1.0	Block	exp	41	20140421.115410	same	60	diff	0	2825
SS	30	18	F	PSYC4802-20142	1.0	Block	exp	42	20140421.115415	same	20	same	1	2175
SS	30	18	F	PSYC4802-20142	1.0	Block	exp	43	20140421.115419	same	20	same	1	2151
SS	30	18	F	PSYC4802-20142	1.0	Block	exp	44	20140421.115423	same	60	same	1	3517
SS	30	18	F	PSYC4802-20142	1.0	Block	exp	45	20140421.115429	same	60	same	1	3177
SS	30	18	F	PSYC4802-20142	1.0	Block	exp	46	20140421.115434	diff	20	diff	1	4495
SS	30	18	F	PSYC4802-20142	1.0	Block	exp	47	20140421.115440	same	60	diff	0	4507
SS	30	18	F	PSYC4802-20142	1.0	Block	exp	48	20140421.115447	same	60	diff	0	7812
SS	30	18	F	PSYC4802-20142	1.0	Block	exp	49	20140421.115457	same	60	same	1	3516
SS	30	18	F	PSYC4802-20142	1.0	Block	exp	50	20140421.115502	same	20	same	1	2632
SS	30	18	F	PSYC4802-20142	1.0	Block	exp	51	20140421.115524	same	100	same	1	3511
SS	30	18	F	PSYC4802-20142	1.0	Block	exp	52	20140421.115529	diff	100	diff	1	6054
SS	30	18	F	PSYC4802-20142	1.0	Block	exp	53	20140421.115537	same	100	same	1	2556
SS	30	18	F	PSYC4802-20142	1.0	Block	exp	54	20140421.115542	diff	20	diff	1	10343
SS	30	18	F	PSYC4802-20142	1.0	Block	exp	55	20140421.115554	diff	100	diff	1	2873
SS	30	18	F	PSYC4802-20142	1.0	Block	exp	56	20140421.115559	same	100	same	1	3153
SS	30	18	F	PSYC4802-20142	1.0	Block	exp	57	20140421.115604	same	20	same	1	3324
SS	30	18	F	PSYC4802-20142	1.0	Block	exp	58	20140421.115609	same	100	same	1	3358
SS	30	18	F	PSYC4802-20142	1.0	Block	exp	59	20140421.115615	same	100	same	1	2889
SS	30	18	F	PSYC4802-20142	1.0	Block	exp	60	20140421.115620	diff	100	same	0	5544
SS	30	18	F	PSYC4802-20142	1.0	Block	exp	61	20140421.115627	same	20	diff	0	2292
SS	30	18	F	PSYC4802-20142	1.0	Block	exp	62	20140421.115632	diff	100	diff	1	5105
SS	30	18	F	PSYC4802-20142	1.0	Block	exp	63	20140421.115639	diff	20	diff	1	6651
SS	30	18	F	PSYC4802-20142	1.0	Block	exp	64	20140421.115647	same	100	diff	0	2527
SS	30	18	F	PSYC4802-20142	1.0	Block	exp	65	20140421.115652	diff	100	diff	1	3810
SS	30	18	F	PSYC4802-20142	1.0	Block	exp	66	20140421.115658	same	60	diff	0	4607
SS	30	18	F	PSYC4802-20142	1.0	Block	exp	67	20140421.115704	same	20	same	1	2268
SS	30	18	F	PSYC4802-20142	1.0	Block	exp	68	20140421.115708	diff	20	diff	1	5485
SS	30	18	F	PSYC4802-20142	1.0	Block	exp	69	20140421.115716	diff	60	diff	1	3540
SS	30	18	F	PSYC4802-20142	1.0	Block	exp	70	20140421.115721	diff	100	diff	1	3365
SS	30	18	F	PSYC4802-20142	1.0	Block	exp	71	20140421.115727	diff	100	diff	1	4542
SS	30	18	F	PSYC4802-20142	1.0	Block	exp	72	20140421.115733	diff	60	diff	1	5673
SS	30	18	F	PSYC4802-20142	1.0	Block	exp	73	20140421.115741	diff	60	diff	1	2602
SS	30	18	F	PSYC4802-20142	1.0	Block	exp	74	20140421.115746	same	20	same	1	3652
SS	30	18	F	PSYC4802-20142	1.0	Block	exp	75	20140421.115751	diff	100	same	0	1337
SS	30	18	F	PSYC4802-20142	1.0	Block	exp	76	20140421.115755	same	100	same	1	3639
SS	30	18	F	PSYC4802-20142	1.0	Block	exp	77	20140421.115800	diff	20	diff	1	7688
SS	30	18	F	PSYC4802-20142	1.0	Block	exp	78	20140421.115810	diff	100	diff	1	2116
SS	30	18	F	PSYC4802-20142	1.0	Block	exp	79	20140421.115814	same	100	same	1	3130
SS	30	18	F	PSYC4802-20142	1.0	Block	exp	80	20140421.115819	diff	60	same	0	2720
SS	30	18	F	PSYC4802-20142	1.0	Block	exp	81	20140421.115824	same	60	same	1	3493
SS	30	18	F	PSYC4802-20142	1.0	Block	exp	82	20140421.115829	diff	100	diff	1	3411
SS	30	18	F	PSYC4802-20142	1.0	Block	exp	83	20140421.115835	same	20	same	1	1835
SS	30	18	F	PSYC4802-20142	1.0	Block	exp	84	20140421.115839	diff	20	diff	1	4267
SS	30	18	F	PSYC4802-20142	1.0	Block	exp	85	20140421.115845	diff	60	diff	1	1671
SS	30	18	F	PSYC4802-20142	1.0	Block	exp	86	20140421.115849	diff	100	diff	1	7319
SS	30	18	F	PSYC4802-20142	1.0	Block	exp	87	20140421.115858	same	20	same	1	2186
SS	30	18	F	PSYC4802-20142	1.0	Block	exp	88	20140421.115902	same	60	same	1	2398
SS	30	18	F	PSYC4802-20142	1.0	Block	exp	89	20140421.115907	diff	60	diff	1	3921
SS	30	18	F	PSYC4802-20142	1.0	Block	exp	90	20140421.115913	diff	100	diff	1	4589
SS	30	18	F	PSYC4802-20142	1.0	Block	exp	91	20140421.115919	diff	20	diff	1	4202
SS	30	18	F	PSYC4802-20142	1.0	Block	exp	92	20140421.115925	diff	60	diff	1	2163
SS	30	18	F	PSYC4802-20142	1.0	Block	exp	93	20140421.115929	same	100	diff	0	3130
SS	30	18	F	PSYC4802-20142	1.0	Block	exp	94	20140421.115935	diff	20	diff	1	3681
SS	30	18	F	PSYC4802-20142	1.0	Block	exp	95	20140421.115940	same	20	same	1	2732
SS	30	18	F	PSYC4802-20142	1.0	Block	exp	96	20140421.115945	diff	20	diff	1	4067
SS	30	18	F	PSYC4802-20142	1.0	Block	exp	97	20140421.115951	same	100	diff	0	3523
SS	30	18	F	PSYC4802-20142	1.0	Block	exp	98	20140421.115956	diff	20	same	0	3763
SS	30	18	F	PSYC4802-20142	1.0	Block	exp	99	20140421.120002	same	20	same	1	3130
SS	30	18	F	PSYC4802-20142	1.0	Block	exp	100	20140421.120007	diff	60	same	0	2028
SS	30	18	F	PSYC4802-20142	1.0	Block	exp	101	20140421.120023	same	20	same	1	3470
SS	30	18	F	PSYC4802-20142	1.0	Block	exp	102	20140421.120028	diff	100	diff	1	2573
SS	30	18	F	PSYC4802-20142	1.0	Block	exp	103	20140421.120033	same	100	same	1	3359
SS	30	18	F	PSYC4802-20142	1.0	Block	exp	104	20140421.120038	diff	60	diff	1	2902
SS	30	18	F	PSYC4802-20142	1.0	Block	exp	105	20140421.120043	diff	20	diff	1	4963
SS	30	18	F	PSYC4802-20142	1.0	Block	exp	106	20140421.120050	same	100	same	1	4162
SS	30	18	F	PSYC4802-20142	1.0	Block	exp	107	20140421.120056	diff	60	diff	1	2626
SS	30	18	F	PSYC4802-20142	1.0	Block	exp	108	20140421.120101	diff	60	diff	1	5884
SS	30	18	F	PSYC4802-20142	1.0	Block	exp	109	20140421.120109	same	100	diff	0	2345
SS	30	18	F	PSYC4802-20142	1.0	Block	exp	110	20140421.120113	diff	100	same	0	3329
SS	30	18	F	PSYC4802-20142	1.0	Block	exp	111	20140421.120118	diff	20	diff	1	3066
SS	30	18	F	PSYC4802-20142	1.0	Block	exp	112	20140421.120124	diff	100	diff	1	4002
SS	30	18	F	PSYC4802-20142	1.0	Block	exp	113	20140421.120130	same	60	diff	0	2258
SS	30	18	F	PSYC4802-20142	1.0	Block	exp	114	20140421.120134	diff	60	diff	1	3059
SS	30	18	F	PSYC4802-20142	1.0	Block	exp	115	20140421.120139	same	60	diff	0	2907
SS	30	18	F	PSYC4802-20142	1.0	Block	exp	116	20140421.120144	same	20	same	1	2233
SS	30	18	F	PSYC4802-20142	1.0	Block	exp	117	20140421.120148	diff	60	same	0	3317
SS	30	18	F	PSYC4802-20142	1.0	Block	exp	118	20140421.120153	same	20	diff	0	4220
SS	30	18	F	PSYC4802-20142	1.0	Block	exp	119	20140421.120200	same	20	same	1	3084
SS	30	18	F	PSYC4802-20142	1.0	Block	exp	120	20140421.120205	diff	20	diff	1	3592
SS	30	18	F	PSYC4802-20142	1.0	Block	exp	121	20140421.120210	diff	100	same	0	2685
SS	30	18	F	PSYC4802-20142	1.0	Block	exp	122	20140421.120215	diff	60	diff	1	1671
SS	30	18	F	PSYC4802-20142	1.0	Block	exp	123	20140421.120219	same	20	same	1	3037
SS	30	18	F	PSYC4802-20142	1.0	Block	exp	124	20140421.120224	diff	60	diff	1	3422
SS	30	18	F	PSYC4802-20142	1.0	Block	exp	125	20140421.120229	same	60	same	1	4308
SS	30	18	F	PSYC4802-20142	1.0	Block	exp	126	20140421.120235	diff	60	diff	1	3464
SS	30	18	F	PSYC4802-20142	1.0	Block	exp	127	20140421.120241	same	60	same	1	4695
SS	30	18	F	PSYC4802-20142	1.0	Block	exp	128	20140421.120247	same	60	same	1	2538
SS	30	18	F	PSYC4802-20142	1.0	Block	exp	129	20140421.120252	diff	60	diff	1	3546
SS	30	18	F	PSYC4802-20142	1.0	Block	exp	130	20140421.120258	same	60	diff	0	4776
SS	30	18	F	PSYC4802-20142	1.0	Block	exp	131	20140421.120304	same	100	same	1	4665
SS	30	18	F	PSYC4802-20142	1.0	Block	exp	132	20140421.120311	diff	20	diff	1	4665
SS	30	18	F	PSYC4802-20142	1.0	Block	exp	133	20140421.120318	diff	100	diff	1	4993
SS	30	18	F	PSYC4802-20142	1.0	Block	exp	134	20140421.120325	diff	60	diff	1	3968
SS	30	18	F	PSYC4802-20142	1.0	Block	exp	135	20140421.120331	diff	20	diff	1	2532
SS	30	18	F	PSYC4802-20142	1.0	Block	exp	136	20140421.120335	same	60	same	1	4396
SS	30	18	F	PSYC4802-20142	1.0	Block	exp	137	20140421.120342	same	20	diff	0	1747
SS	30	18	F	PSYC4802-20142	1.0	Block	exp	138	20140421.120345	diff	100	diff	1	3446
SS	30	18	F	PSYC4802-20142	1.0	Block	exp	139	20140421.120351	same	100	diff	0	4982
SS	30	18	F	PSYC4802-20142	1.0	Block	exp	140	20140421.120358	same	20	same	1	3347
SS	30	18	F	PSYC4802-20142	1.0	Block	exp	141	20140421.120403	diff	20	diff	1	3669
SS	30	18	F	PSYC4802-20142	1.0	Block	exp	142	20140421.120409	same	20	same	1	3095
SS	30	18	F	PSYC4802-20142	1.0	Block	exp	143	20140421.120414	diff	20	diff	1	4378
SS	30	18	F	PSYC4802-20142	1.0	Block	exp	144	20140421.120420	diff	60	diff	1	4741
SS	30	18	F	PSYC4802-20142	1.0	Block	exp	145	20140421.120427	diff	100	diff	1	2949
SS	30	18	F	PSYC4802-20142	1.0	Block	exp	146	20140421.120432	same	20	diff	0	3072
SS	30	18	F	PSYC4802-20142	1.0	Block	exp	147	20140421.120437	same	60	same	1	4074
SS	30	18	F	PSYC4802-20142	1.0	Block	exp	148	20140421.120443	same	60	same	1	4700
SS	30	18	F	PSYC4802-20142	1.0	Block	exp	149	20140421.120450	same	100	diff	0	2186
SS	30	18	F	PSYC4802-20142	1.0	Block	exp	150	20140421.120454	same	60	same	1	3399
