Experimenter	Subject	Age	Sex	Experiment	Version	Block	TrialType	Trial	Timestamp	SameDiff	Rotation	Response	Acc	RT
MB	227	19	M	PSYC4802-20144	1.0	Block	practice	1	20141013.112056	diff	20	37	-3	7572
MB	227	19	M	PSYC4802-20144	1.0	Block	practice	2	20141013.112106	diff	20	diff	1	6136
MB	227	19	M	PSYC4802-20144	1.0	Block	practice	3	20141013.112114	same	60	diff	0	4971
MB	227	19	M	PSYC4802-20144	1.0	Block	practice	4	20141013.112121	diff	60	diff	1	9272
MB	227	19	M	PSYC4802-20144	1.0	Block	practice	5	20141013.112132	diff	20	same	0	7827
MB	227	19	M	PSYC4802-20144	1.0	Block	practice	6	20141013.112142	same	60	diff	0	17267
MB	227	19	M	PSYC4802-20144	1.0	Block	practice	7	20141013.112201	same	20	same	1	5366
MB	227	19	M	PSYC4802-20144	1.0	Block	practice	8	20141013.112209	diff	60	diff	1	5811
MB	227	19	M	PSYC4802-20144	1.0	Block	practice	9	20141013.112216	same	100	same	1	5841
MB	227	19	M	PSYC4802-20144	1.0	Block	practice	10	20141013.112224	diff	100	diff	1	9161
MB	227	19	M	PSYC4802-20144	1.0	Block	practice	11	20141013.112235	diff	100	same	0	6092
MB	227	19	M	PSYC4802-20144	1.0	Block	practice	12	20141013.112244	same	20	same	1	6286
MB	227	19	M	PSYC4802-20144	1.0	Block	practice	13	20141013.112252	diff	20	same	0	14051
MB	227	19	M	PSYC4802-20144	1.0	Block	practice	14	20141013.112308	same	20	same	1	13312
MB	227	19	M	PSYC4802-20144	1.0	Block	practice	15	20141013.112323	diff	100	diff	1	6461
MB	227	19	M	PSYC4802-20144	1.0	Block	practice	16	20141013.112332	same	100	same	1	4396
MB	227	19	M	PSYC4802-20144	1.0	Block	practice	17	20141013.112338	diff	100	diff	1	12141
MB	227	19	M	PSYC4802-20144	1.0	Block	practice	18	20141013.112352	diff	60	same	0	6036
MB	227	19	M	PSYC4802-20144	1.0	Block	practice	19	20141013.112400	same	60	diff	0	13167
MB	227	19	M	PSYC4802-20144	1.0	Block	practice	20	20141013.112416	diff	100	same	0	8292
MB	227	19	M	PSYC4802-20144	1.0	Block	practice	21	20141013.112426	diff	20	same	0	4351
MB	227	19	M	PSYC4802-20144	1.0	Block	practice	22	20141013.112432	same	100	diff	0	4011
MB	227	19	M	PSYC4802-20144	1.0	Block	practice	23	20141013.112438	same	100	diff	0	4781
MB	227	19	M	PSYC4802-20144	1.0	Block	practice	24	20141013.112445	same	100	diff	0	8001
MB	227	19	M	PSYC4802-20144	1.0	Block	practice	25	20141013.112455	same	20	same	1	7361
MB	227	19	M	PSYC4802-20144	1.0	Block	practice	26	20141013.112504	same	20	same	1	3937
MB	227	19	M	PSYC4802-20144	1.0	Block	practice	27	20141013.112510	same	60	same	1	5406
MB	227	19	M	PSYC4802-20144	1.0	Block	practice	28	20141013.112518	diff	60	diff	1	7081
MB	227	19	M	PSYC4802-20144	1.0	Block	practice	29	20141013.112527	same	60	same	1	5711
MB	227	19	M	PSYC4802-20144	1.0	Block	practice	30	20141013.112535	diff	60	diff	1	6957
MB	227	19	M	PSYC4802-20144	1.0	Block	exp	31	20141013.112543	diff	100	diff	1	5037
MB	227	19	M	PSYC4802-20144	1.0	Block	exp	32	20141013.112551	diff	60	diff	1	8047
MB	227	19	M	PSYC4802-20144	1.0	Block	exp	33	20141013.112601	same	20	same	1	6866
MB	227	19	M	PSYC4802-20144	1.0	Block	exp	34	20141013.112609	diff	60	diff	1	9632
MB	227	19	M	PSYC4802-20144	1.0	Block	exp	35	20141013.112621	same	20	same	1	5266
MB	227	19	M	PSYC4802-20144	1.0	Block	exp	36	20141013.112628	diff	60	diff	1	17072
MB	227	19	M	PSYC4802-20144	1.0	Block	exp	37	20141013.112647	diff	100	diff	1	10966
MB	227	19	M	PSYC4802-20144	1.0	Block	exp	38	20141013.112700	diff	20	same	0	16062
MB	227	19	M	PSYC4802-20144	1.0	Block	exp	39	20141013.112718	diff	20	same	0	8276
MB	227	19	M	PSYC4802-20144	1.0	Block	exp	40	20141013.112729	diff	60	same	0	4176
MB	227	19	M	PSYC4802-20144	1.0	Block	exp	41	20141013.112735	diff	60	diff	1	3061
MB	227	19	M	PSYC4802-20144	1.0	Block	exp	42	20141013.112740	same	60	same	1	17427
MB	227	19	M	PSYC4802-20144	1.0	Block	exp	43	20141013.112759	diff	100	diff	1	6296
MB	227	19	M	PSYC4802-20144	1.0	Block	exp	44	20141013.112808	diff	20	same	0	4162
MB	227	19	M	PSYC4802-20144	1.0	Block	exp	45	20141013.112814	same	60	same	1	9186
MB	227	19	M	PSYC4802-20144	1.0	Block	exp	46	20141013.112825	diff	100	diff	1	12321
MB	227	19	M	PSYC4802-20144	1.0	Block	exp	47	20141013.112839	same	20	same	1	3481
MB	227	19	M	PSYC4802-20144	1.0	Block	exp	48	20141013.112845	diff	100	diff	1	5566
MB	227	19	M	PSYC4802-20144	1.0	Block	exp	49	20141013.112852	same	20	same	1	3691
MB	227	19	M	PSYC4802-20144	1.0	Block	exp	50	20141013.112858	diff	60	same	0	5476
MB	227	19	M	PSYC4802-20144	1.0	Block	exp	51	20141013.112919	same	20	same	1	5771
MB	227	19	M	PSYC4802-20144	1.0	Block	exp	52	20141013.112927	diff	20	same	0	5517
MB	227	19	M	PSYC4802-20144	1.0	Block	exp	53	20141013.112935	same	100	diff	0	7032
MB	227	19	M	PSYC4802-20144	1.0	Block	exp	54	20141013.112944	diff	20	same	0	3252
MB	227	19	M	PSYC4802-20144	1.0	Block	exp	55	20141013.112949	same	60	diff	0	8537
MB	227	19	M	PSYC4802-20144	1.0	Block	exp	56	20141013.112959	diff	100	diff	1	6587
MB	227	19	M	PSYC4802-20144	1.0	Block	exp	57	20141013.113008	diff	60	diff	1	5692
MB	227	19	M	PSYC4802-20144	1.0	Block	exp	58	20141013.113016	diff	20	diff	1	3846
MB	227	19	M	PSYC4802-20144	1.0	Block	exp	59	20141013.113022	same	100	same	1	4066
MB	227	19	M	PSYC4802-20144	1.0	Block	exp	60	20141013.113028	same	100	same	1	5936
MB	227	19	M	PSYC4802-20144	1.0	Block	exp	61	20141013.113036	diff	100	diff	1	2291
MB	227	19	M	PSYC4802-20144	1.0	Block	exp	62	20141013.113040	diff	100	diff	1	3917
MB	227	19	M	PSYC4802-20144	1.0	Block	exp	63	20141013.113046	same	100	same	1	6236
MB	227	19	M	PSYC4802-20144	1.0	Block	exp	64	20141013.113054	same	20	same	1	6356
MB	227	19	M	PSYC4802-20144	1.0	Block	exp	65	20141013.113102	diff	60	diff	1	5121
MB	227	19	M	PSYC4802-20144	1.0	Block	exp	66	20141013.113110	same	100	same	1	7576
MB	227	19	M	PSYC4802-20144	1.0	Block	exp	67	20141013.113119	diff	20	same	0	4072
MB	227	19	M	PSYC4802-20144	1.0	Block	exp	68	20141013.113125	diff	60	diff	1	6083
MB	227	19	M	PSYC4802-20144	1.0	Block	exp	69	20141013.113133	same	20	same	1	4342
MB	227	19	M	PSYC4802-20144	1.0	Block	exp	70	20141013.113140	same	60	same	1	2977
MB	227	19	M	PSYC4802-20144	1.0	Block	exp	71	20141013.113145	same	20	same	1	3646
MB	227	19	M	PSYC4802-20144	1.0	Block	exp	72	20141013.113150	same	60	same	1	3056
MB	227	19	M	PSYC4802-20144	1.0	Block	exp	73	20141013.113155	diff	100	diff	1	8576
MB	227	19	M	PSYC4802-20144	1.0	Block	exp	74	20141013.113206	same	100	same	1	4406
MB	227	19	M	PSYC4802-20144	1.0	Block	exp	75	20141013.113212	diff	20	diff	1	4631
MB	227	19	M	PSYC4802-20144	1.0	Block	exp	76	20141013.113219	same	20	same	1	4007
MB	227	19	M	PSYC4802-20144	1.0	Block	exp	77	20141013.113225	diff	60	diff	1	8271
MB	227	19	M	PSYC4802-20144	1.0	Block	exp	78	20141013.113235	same	100	same	1	9082
MB	227	19	M	PSYC4802-20144	1.0	Block	exp	79	20141013.113246	same	60	same	1	7116
MB	227	19	M	PSYC4802-20144	1.0	Block	exp	80	20141013.113255	same	20	same	1	3001
MB	227	19	M	PSYC4802-20144	1.0	Block	exp	81	20141013.113300	same	60	same	1	4541
MB	227	19	M	PSYC4802-20144	1.0	Block	exp	82	20141013.113307	same	20	same	1	2381
MB	227	19	M	PSYC4802-20144	1.0	Block	exp	83	20141013.113311	same	20	same	1	3607
MB	227	19	M	PSYC4802-20144	1.0	Block	exp	84	20141013.113317	same	20	same	1	2771
MB	227	19	M	PSYC4802-20144	1.0	Block	exp	85	20141013.113322	same	100	diff	0	4081
MB	227	19	M	PSYC4802-20144	1.0	Block	exp	86	20141013.113328	diff	20	same	0	5476
MB	227	19	M	PSYC4802-20144	1.0	Block	exp	87	20141013.113335	same	60	same	1	5531
MB	227	19	M	PSYC4802-20144	1.0	Block	exp	88	20141013.113343	diff	60	diff	1	4136
MB	227	19	M	PSYC4802-20144	1.0	Block	exp	89	20141013.113349	same	100	same	1	3581
MB	227	19	M	PSYC4802-20144	1.0	Block	exp	90	20141013.113355	diff	100	diff	1	7382
MB	227	19	M	PSYC4802-20144	1.0	Block	exp	91	20141013.113404	diff	100	diff	1	3866
MB	227	19	M	PSYC4802-20144	1.0	Block	exp	92	20141013.113410	same	60	same	1	2301
MB	227	19	M	PSYC4802-20144	1.0	Block	exp	93	20141013.113414	same	100	diff	0	5231
MB	227	19	M	PSYC4802-20144	1.0	Block	exp	94	20141013.113421	diff	100	same	0	7541
MB	227	19	M	PSYC4802-20144	1.0	Block	exp	95	20141013.113431	diff	60	diff	1	3587
MB	227	19	M	PSYC4802-20144	1.0	Block	exp	96	20141013.113437	diff	20	diff	1	6106
MB	227	19	M	PSYC4802-20144	1.0	Block	exp	97	20141013.113445	diff	20	diff	1	2957
MB	227	19	M	PSYC4802-20144	1.0	Block	exp	98	20141013.113450	same	100	same	1	2791
MB	227	19	M	PSYC4802-20144	1.0	Block	exp	99	20141013.113454	diff	60	diff	1	2966
MB	227	19	M	PSYC4802-20144	1.0	Block	exp	100	20141013.113459	same	60	same	1	3661
MB	227	19	M	PSYC4802-20144	1.0	Block	exp	101	20141013.113520	same	100	same	1	5676
MB	227	19	M	PSYC4802-20144	1.0	Block	exp	102	20141013.113528	same	60	same	1	6286
MB	227	19	M	PSYC4802-20144	1.0	Block	exp	103	20141013.113536	diff	100	diff	1	4347
MB	227	19	M	PSYC4802-20144	1.0	Block	exp	104	20141013.113543	same	60	same	1	6666
MB	227	19	M	PSYC4802-20144	1.0	Block	exp	105	20141013.113551	same	100	same	1	3582
MB	227	19	M	PSYC4802-20144	1.0	Block	exp	106	20141013.113557	diff	20	diff	1	4871
MB	227	19	M	PSYC4802-20144	1.0	Block	exp	107	20141013.113604	same	100	same	1	9581
MB	227	19	M	PSYC4802-20144	1.0	Block	exp	108	20141013.113615	same	60	same	1	8961
MB	227	19	M	PSYC4802-20144	1.0	Block	exp	109	20141013.113626	same	60	same	1	5511
MB	227	19	M	PSYC4802-20144	1.0	Block	exp	110	20141013.113634	diff	20	same	0	11372
MB	227	19	M	PSYC4802-20144	1.0	Block	exp	111	20141013.113647	diff	100	diff	1	5806
MB	227	19	M	PSYC4802-20144	1.0	Block	exp	112	20141013.113655	same	20	same	1	4521
MB	227	19	M	PSYC4802-20144	1.0	Block	exp	113	20141013.113702	same	60	same	1	3911
MB	227	19	M	PSYC4802-20144	1.0	Block	exp	114	20141013.113707	same	20	same	1	2501
MB	227	19	M	PSYC4802-20144	1.0	Block	exp	115	20141013.113712	diff	100	diff	1	2661
MB	227	19	M	PSYC4802-20144	1.0	Block	exp	116	20141013.113717	same	60	same	1	2351
MB	227	19	M	PSYC4802-20144	1.0	Block	exp	117	20141013.113721	diff	60	diff	1	4407
MB	227	19	M	PSYC4802-20144	1.0	Block	exp	118	20141013.113727	same	100	diff	0	2476
MB	227	19	M	PSYC4802-20144	1.0	Block	exp	119	20141013.113732	diff	60	diff	1	6921
MB	227	19	M	PSYC4802-20144	1.0	Block	exp	120	20141013.113741	same	20	same	1	2596
MB	227	19	M	PSYC4802-20144	1.0	Block	exp	121	20141013.113745	diff	20	diff	1	5396
MB	227	19	M	PSYC4802-20144	1.0	Block	exp	122	20141013.113753	same	20	same	1	1886
MB	227	19	M	PSYC4802-20144	1.0	Block	exp	123	20141013.113757	same	100	same	1	3097
MB	227	19	M	PSYC4802-20144	1.0	Block	exp	124	20141013.113802	diff	100	diff	1	2856
MB	227	19	M	PSYC4802-20144	1.0	Block	exp	125	20141013.113807	same	100	same	1	3527
MB	227	19	M	PSYC4802-20144	1.0	Block	exp	126	20141013.113812	diff	20	same	0	2552
MB	227	19	M	PSYC4802-20144	1.0	Block	exp	127	20141013.113817	diff	100	diff	1	3966
MB	227	19	M	PSYC4802-20144	1.0	Block	exp	128	20141013.113823	diff	60	diff	1	2846
MB	227	19	M	PSYC4802-20144	1.0	Block	exp	129	20141013.113828	diff	20	diff	1	3576
MB	227	19	M	PSYC4802-20144	1.0	Block	exp	130	20141013.113833	diff	100	diff	1	2441
MB	227	19	M	PSYC4802-20144	1.0	Block	exp	131	20141013.113838	diff	60	diff	1	4516
MB	227	19	M	PSYC4802-20144	1.0	Block	exp	132	20141013.113844	diff	20	same	0	3157
MB	227	19	M	PSYC4802-20144	1.0	Block	exp	133	20141013.113849	diff	60	diff	1	4556
MB	227	19	M	PSYC4802-20144	1.0	Block	exp	134	20141013.113856	diff	20	diff	1	2666
MB	227	19	M	PSYC4802-20144	1.0	Block	exp	135	20141013.113901	same	60	same	1	2021
MB	227	19	M	PSYC4802-20144	1.0	Block	exp	136	20141013.113905	diff	60	diff	1	1772
MB	227	19	M	PSYC4802-20144	1.0	Block	exp	137	20141013.113908	same	60	same	1	1746
MB	227	19	M	PSYC4802-20144	1.0	Block	exp	138	20141013.113912	same	20	diff	0	3177
MB	227	19	M	PSYC4802-20144	1.0	Block	exp	139	20141013.113917	diff	20	same	0	2436
MB	227	19	M	PSYC4802-20144	1.0	Block	exp	140	20141013.113922	same	100	diff	0	2051
MB	227	19	M	PSYC4802-20144	1.0	Block	exp	141	20141013.113926	same	60	same	1	1682
MB	227	19	M	PSYC4802-20144	1.0	Block	exp	142	20141013.113930	same	20	same	1	2041
MB	227	19	M	PSYC4802-20144	1.0	Block	exp	143	20141013.113934	diff	20	same	0	3487
MB	227	19	M	PSYC4802-20144	1.0	Block	exp	144	20141013.113939	diff	100	diff	1	2867
MB	227	19	M	PSYC4802-20144	1.0	Block	exp	145	20141013.113944	same	20	same	1	1772
MB	227	19	M	PSYC4802-20144	1.0	Block	exp	146	20141013.113948	same	100	same	1	2167
MB	227	19	M	PSYC4802-20144	1.0	Block	exp	147	20141013.113952	diff	100	diff	1	1996
MB	227	19	M	PSYC4802-20144	1.0	Block	exp	148	20141013.113956	diff	60	diff	1	1341
MB	227	19	M	PSYC4802-20144	1.0	Block	exp	149	20141013.113959	same	60	same	1	1177
MB	227	19	M	PSYC4802-20144	1.0	Block	exp	150	20141013.114003	same	100	diff	0	736
