Experimenter	Subject	Age	Sex	Experiment	Version	Block	TrialType	Trial	Timestamp	SameDiff	Rotation	Response	Acc	RT
AL	48	19	F	PSYC4802-20142	1.0	Block	practice	1	20140423.112323	diff	100	same	0	24633
AL	48	19	F	PSYC4802-20142	1.0	Block	practice	2	20140423.112350	diff	60	diff	1	16782
AL	48	19	F	PSYC4802-20142	1.0	Block	practice	3	20140423.112409	diff	100	diff	1	18481
AL	48	19	F	PSYC4802-20142	1.0	Block	practice	4	20140423.112429	same	100	diff	0	10735
AL	48	19	F	PSYC4802-20142	1.0	Block	practice	5	20140423.112442	diff	60	same	0	6335
AL	48	19	F	PSYC4802-20142	1.0	Block	practice	6	20140423.112451	diff	100	diff	1	23473
AL	48	19	F	PSYC4802-20142	1.0	Block	practice	7	20140423.112516	diff	20	diff	1	13835
AL	48	19	F	PSYC4802-20142	1.0	Block	practice	8	20140423.112532	same	60	diff	0	14145
AL	48	19	F	PSYC4802-20142	1.0	Block	practice	9	20140423.112548	same	60	same	1	9797
AL	48	19	F	PSYC4802-20142	1.0	Block	practice	10	20140423.112600	same	20	diff	0	9792
AL	48	19	F	PSYC4802-20142	1.0	Block	practice	11	20140423.112612	same	100	diff	0	13290
AL	48	19	F	PSYC4802-20142	1.0	Block	practice	12	20140423.112627	same	60	same	1	22371
AL	48	19	F	PSYC4802-20142	1.0	Block	practice	13	20140423.112651	same	60	same	1	9282
AL	48	19	F	PSYC4802-20142	1.0	Block	practice	14	20140423.112703	diff	20	same	0	14433
AL	48	19	F	PSYC4802-20142	1.0	Block	practice	15	20140423.112719	diff	60	diff	1	25829
AL	48	19	F	PSYC4802-20142	1.0	Block	practice	16	20140423.112747	same	60	diff	0	21592
AL	48	19	F	PSYC4802-20142	1.0	Block	practice	17	20140423.112810	diff	100	same	0	12675
AL	48	19	F	PSYC4802-20142	1.0	Block	practice	18	20140423.112825	diff	100	same	0	28476
AL	48	19	F	PSYC4802-20142	1.0	Block	practice	19	20140423.112856	same	100	diff	0	15563
AL	48	19	F	PSYC4802-20142	1.0	Block	practice	20	20140423.112913	same	20	diff	0	16296
AL	48	19	F	PSYC4802-20142	1.0	Block	practice	21	20140423.112932	diff	20	same	0	2849
AL	48	19	F	PSYC4802-20142	1.0	Block	practice	22	20140423.112937	diff	60	same	0	505
AL	48	19	F	PSYC4802-20142	1.0	Block	practice	23	20140423.112939	diff	60	diff	1	6839
AL	48	19	F	PSYC4802-20142	1.0	Block	practice	24	20140423.112948	same	20	same	1	29690
AL	48	19	F	PSYC4802-20142	1.0	Block	practice	25	20140423.113020	same	20	same	1	2743
AL	48	19	F	PSYC4802-20142	1.0	Block	practice	26	20140423.113024	diff	20	diff	1	2966
AL	48	19	F	PSYC4802-20142	1.0	Block	practice	27	20140423.113029	same	100	same	1	7553
AL	48	19	F	PSYC4802-20142	1.0	Block	practice	28	20140423.113039	same	100	same	1	8766
AL	48	19	F	PSYC4802-20142	1.0	Block	practice	29	20140423.113050	diff	20	diff	1	6341
AL	48	19	F	PSYC4802-20142	1.0	Block	practice	30	20140423.113058	same	20	same	1	8432
AL	48	19	F	PSYC4802-20142	1.0	Block	exp	31	20140423.113109	same	60	diff	0	8369
AL	48	19	F	PSYC4802-20142	1.0	Block	exp	32	20140423.113119	diff	60	diff	1	10811
AL	48	19	F	PSYC4802-20142	1.0	Block	exp	33	20140423.113132	diff	100	same	0	21621
AL	48	19	F	PSYC4802-20142	1.0	Block	exp	34	20140423.113156	same	60	same	1	8643
AL	48	19	F	PSYC4802-20142	1.0	Block	exp	35	20140423.113206	same	20	same	1	5152
AL	48	19	F	PSYC4802-20142	1.0	Block	exp	36	20140423.113213	diff	60	same	0	13413
AL	48	19	F	PSYC4802-20142	1.0	Block	exp	37	20140423.113229	same	20	same	1	6956
AL	48	19	F	PSYC4802-20142	1.0	Block	exp	38	20140423.113238	same	20	same	1	4882
AL	48	19	F	PSYC4802-20142	1.0	Block	exp	39	20140423.113245	diff	100	diff	1	10934
AL	48	19	F	PSYC4802-20142	1.0	Block	exp	40	20140423.113258	diff	100	same	0	17778
AL	48	19	F	PSYC4802-20142	1.0	Block	exp	41	20140423.113318	same	100	diff	0	13653
AL	48	19	F	PSYC4802-20142	1.0	Block	exp	42	20140423.113333	diff	20	same	0	10776
AL	48	19	F	PSYC4802-20142	1.0	Block	exp	43	20140423.113346	same	60	same	1	14796
AL	48	19	F	PSYC4802-20142	1.0	Block	exp	44	20140423.113403	diff	100	diff	1	9177
AL	48	19	F	PSYC4802-20142	1.0	Block	exp	45	20140423.113414	diff	60	diff	1	8532
AL	48	19	F	PSYC4802-20142	1.0	Block	exp	46	20140423.113425	diff	20	diff	1	9305
AL	48	19	F	PSYC4802-20142	1.0	Block	exp	47	20140423.113436	diff	100	diff	1	4700
AL	48	19	F	PSYC4802-20142	1.0	Block	exp	48	20140423.113443	diff	100	diff	1	5678
AL	48	19	F	PSYC4802-20142	1.0	Block	exp	49	20140423.113450	same	100	same	1	8338
AL	48	19	F	PSYC4802-20142	1.0	Block	exp	50	20140423.113501	same	60	same	1	6763
AL	48	19	F	PSYC4802-20142	1.0	Block	exp	51	20140423.113512	same	60	same	1	4624
AL	48	19	F	PSYC4802-20142	1.0	Block	exp	52	20140423.113519	diff	20	diff	1	4419
AL	48	19	F	PSYC4802-20142	1.0	Block	exp	53	20140423.113525	diff	100	diff	1	6317
AL	48	19	F	PSYC4802-20142	1.0	Block	exp	54	20140423.113533	same	60	same	1	6100
AL	48	19	F	PSYC4802-20142	1.0	Block	exp	55	20140423.113542	diff	20	diff	1	10395
AL	48	19	F	PSYC4802-20142	1.0	Block	exp	56	20140423.113554	diff	60	diff	1	15153
AL	48	19	F	PSYC4802-20142	1.0	Block	exp	57	20140423.113611	same	100	same	1	10753
AL	48	19	F	PSYC4802-20142	1.0	Block	exp	58	20140423.113624	diff	60	diff	1	9681
AL	48	19	F	PSYC4802-20142	1.0	Block	exp	59	20140423.113636	diff	100	diff	1	10407
AL	48	19	F	PSYC4802-20142	1.0	Block	exp	60	20140423.113648	same	100	diff	0	8491
AL	48	19	F	PSYC4802-20142	1.0	Block	exp	61	20140423.113659	diff	100	diff	1	8040
AL	48	19	F	PSYC4802-20142	1.0	Block	exp	62	20140423.113709	diff	20	diff	1	4307
AL	48	19	F	PSYC4802-20142	1.0	Block	exp	63	20140423.113715	same	20	same	1	3646
AL	48	19	F	PSYC4802-20142	1.0	Block	exp	64	20140423.113721	same	100	same	1	7390
AL	48	19	F	PSYC4802-20142	1.0	Block	exp	65	20140423.113731	diff	60	diff	1	5931
AL	48	19	F	PSYC4802-20142	1.0	Block	exp	66	20140423.113739	same	60	same	1	4079
AL	48	19	F	PSYC4802-20142	1.0	Block	exp	67	20140423.113745	same	100	same	1	7724
AL	48	19	F	PSYC4802-20142	1.0	Block	exp	68	20140423.113755	diff	20	diff	1	5778
AL	48	19	F	PSYC4802-20142	1.0	Block	exp	69	20140423.113802	diff	60	diff	1	11397
AL	48	19	F	PSYC4802-20142	1.0	Block	exp	70	20140423.113816	diff	20	diff	1	9305
AL	48	19	F	PSYC4802-20142	1.0	Block	exp	71	20140423.113827	same	100	same	1	9540
AL	48	19	F	PSYC4802-20142	1.0	Block	exp	72	20140423.113839	diff	20	diff	1	9897
AL	48	19	F	PSYC4802-20142	1.0	Block	exp	73	20140423.113851	diff	20	diff	1	4753
AL	48	19	F	PSYC4802-20142	1.0	Block	exp	74	20140423.113857	same	60	same	1	5257
AL	48	19	F	PSYC4802-20142	1.0	Block	exp	75	20140423.113905	same	20	same	1	6400
AL	48	19	F	PSYC4802-20142	1.0	Block	exp	76	20140423.113913	same	60	same	1	4900
AL	48	19	F	PSYC4802-20142	1.0	Block	exp	77	20140423.113920	diff	100	diff	1	8673
AL	48	19	F	PSYC4802-20142	1.0	Block	exp	78	20140423.113931	same	100	diff	0	13272
AL	48	19	F	PSYC4802-20142	1.0	Block	exp	79	20140423.113946	diff	100	diff	1	7255
AL	48	19	F	PSYC4802-20142	1.0	Block	exp	80	20140423.113955	same	100	same	1	13963
AL	48	19	F	PSYC4802-20142	1.0	Block	exp	81	20140423.114011	diff	60	diff	1	8966
AL	48	19	F	PSYC4802-20142	1.0	Block	exp	82	20140423.114022	same	60	same	1	4935
AL	48	19	F	PSYC4802-20142	1.0	Block	exp	83	20140423.114029	diff	20	diff	1	10366
AL	48	19	F	PSYC4802-20142	1.0	Block	exp	84	20140423.114042	diff	60	diff	1	6153
AL	48	19	F	PSYC4802-20142	1.0	Block	exp	85	20140423.114050	same	20	same	1	3734
AL	48	19	F	PSYC4802-20142	1.0	Block	exp	86	20140423.114056	same	60	same	1	8474
AL	48	19	F	PSYC4802-20142	1.0	Block	exp	87	20140423.114106	same	100	same	1	7302
AL	48	19	F	PSYC4802-20142	1.0	Block	exp	88	20140423.114116	diff	60	diff	1	10613
AL	48	19	F	PSYC4802-20142	1.0	Block	exp	89	20140423.114128	same	20	same	1	4307
AL	48	19	F	PSYC4802-20142	1.0	Block	exp	90	20140423.114135	diff	20	same	0	8795
AL	48	19	F	PSYC4802-20142	1.0	Block	exp	91	20140423.114145	diff	60	same	0	9124
AL	48	19	F	PSYC4802-20142	1.0	Block	exp	92	20140423.114156	diff	100	diff	1	8854
AL	48	19	F	PSYC4802-20142	1.0	Block	exp	93	20140423.114207	diff	100	diff	1	9370
AL	48	19	F	PSYC4802-20142	1.0	Block	exp	94	20140423.114219	same	20	same	1	6171
AL	48	19	F	PSYC4802-20142	1.0	Block	exp	95	20140423.114227	diff	60	diff	1	15446
AL	48	19	F	PSYC4802-20142	1.0	Block	exp	96	20140423.114245	same	60	same	1	7132
AL	48	19	F	PSYC4802-20142	1.0	Block	exp	97	20140423.114254	diff	60	same	0	5474
AL	48	19	F	PSYC4802-20142	1.0	Block	exp	98	20140423.114301	diff	100	diff	1	16952
AL	48	19	F	PSYC4802-20142	1.0	Block	exp	99	20140423.114320	same	20	same	1	8246
AL	48	19	F	PSYC4802-20142	1.0	Block	exp	100	20140423.114330	same	20	same	1	4583
AL	48	19	F	PSYC4802-20142	1.0	Block	exp	101	20140423.114452	same	60	same	1	3341
AL	48	19	F	PSYC4802-20142	1.0	Block	exp	102	20140423.114458	diff	20	diff	1	3159
AL	48	19	F	PSYC4802-20142	1.0	Block	exp	103	20140423.114503	diff	20	same	0	5111
AL	48	19	F	PSYC4802-20142	1.0	Block	exp	104	20140423.114510	same	100	same	1	5228
AL	48	19	F	PSYC4802-20142	1.0	Block	exp	105	20140423.114517	diff	20	diff	1	6997
AL	48	19	F	PSYC4802-20142	1.0	Block	exp	106	20140423.114526	same	60	same	1	7430
AL	48	19	F	PSYC4802-20142	1.0	Block	exp	107	20140423.114536	same	20	same	1	5374
AL	48	19	F	PSYC4802-20142	1.0	Block	exp	108	20140423.114543	same	20	same	1	4068
AL	48	19	F	PSYC4802-20142	1.0	Block	exp	109	20140423.114549	diff	60	diff	1	5568
AL	48	19	F	PSYC4802-20142	1.0	Block	exp	110	20140423.114557	same	20	same	1	4630
AL	48	19	F	PSYC4802-20142	1.0	Block	exp	111	20140423.114603	same	20	same	1	4958
AL	48	19	F	PSYC4802-20142	1.0	Block	exp	112	20140423.114610	diff	20	diff	1	12704
AL	48	19	F	PSYC4802-20142	1.0	Block	exp	113	20140423.114625	diff	60	diff	1	6593
AL	48	19	F	PSYC4802-20142	1.0	Block	exp	114	20140423.114633	same	100	same	1	5767
AL	48	19	F	PSYC4802-20142	1.0	Block	exp	115	20140423.114641	diff	60	diff	1	6416
AL	48	19	F	PSYC4802-20142	1.0	Block	exp	116	20140423.114650	same	60	same	1	5210
AL	48	19	F	PSYC4802-20142	1.0	Block	exp	117	20140423.114657	diff	100	diff	1	6487
AL	48	19	F	PSYC4802-20142	1.0	Block	exp	118	20140423.114705	diff	20	diff	1	3094
AL	48	19	F	PSYC4802-20142	1.0	Block	exp	119	20140423.114710	diff	20	diff	1	14086
AL	48	19	F	PSYC4802-20142	1.0	Block	exp	120	20140423.114726	same	60	same	1	4208
AL	48	19	F	PSYC4802-20142	1.0	Block	exp	121	20140423.114733	same	100	same	1	4783
AL	48	19	F	PSYC4802-20142	1.0	Block	exp	122	20140423.114739	diff	100	diff	1	7759
AL	48	19	F	PSYC4802-20142	1.0	Block	exp	123	20140423.114749	same	20	same	1	3798
AL	48	19	F	PSYC4802-20142	1.0	Block	exp	124	20140423.114755	same	60	same	1	6751
AL	48	19	F	PSYC4802-20142	1.0	Block	exp	125	20140423.114804	diff	60	diff	1	9475
AL	48	19	F	PSYC4802-20142	1.0	Block	exp	126	20140423.114815	same	20	same	1	5503
AL	48	19	F	PSYC4802-20142	1.0	Block	exp	127	20140423.114823	same	100	diff	0	7606
AL	48	19	F	PSYC4802-20142	1.0	Block	exp	128	20140423.114832	same	20	same	1	3862
AL	48	19	F	PSYC4802-20142	1.0	Block	exp	129	20140423.114838	diff	100	diff	1	5198
AL	48	19	F	PSYC4802-20142	1.0	Block	exp	130	20140423.114845	same	20	same	1	3382
AL	48	19	F	PSYC4802-20142	1.0	Block	exp	131	20140423.114851	same	100	same	1	6464
AL	48	19	F	PSYC4802-20142	1.0	Block	exp	132	20140423.114859	diff	60	diff	1	5831
AL	48	19	F	PSYC4802-20142	1.0	Block	exp	133	20140423.114907	diff	100	diff	1	7928
AL	48	19	F	PSYC4802-20142	1.0	Block	exp	134	20140423.114917	same	100	same	1	5011
AL	48	19	F	PSYC4802-20142	1.0	Block	exp	135	20140423.114924	same	20	same	1	4173
AL	48	19	F	PSYC4802-20142	1.0	Block	exp	136	20140423.114930	diff	20	diff	1	6845
AL	48	19	F	PSYC4802-20142	1.0	Block	exp	137	20140423.114939	same	100	same	1	7255
AL	48	19	F	PSYC4802-20142	1.0	Block	exp	138	20140423.114948	diff	100	diff	1	4302
AL	48	19	F	PSYC4802-20142	1.0	Block	exp	139	20140423.114955	same	60	same	1	7009
AL	48	19	F	PSYC4802-20142	1.0	Block	exp	140	20140423.115004	same	20	same	1	6382
AL	48	19	F	PSYC4802-20142	1.0	Block	exp	141	20140423.115012	same	100	same	1	8251
AL	48	19	F	PSYC4802-20142	1.0	Block	exp	142	20140423.115022	diff	100	diff	1	7063
AL	48	19	F	PSYC4802-20142	1.0	Block	exp	143	20140423.115031	diff	60	diff	1	6012
AL	48	19	F	PSYC4802-20142	1.0	Block	exp	144	20140423.115040	same	60	same	1	7742
AL	48	19	F	PSYC4802-20142	1.0	Block	exp	145	20140423.115049	diff	20	diff	1	3411
AL	48	19	F	PSYC4802-20142	1.0	Block	exp	146	20140423.115055	diff	20	diff	1	5251
AL	48	19	F	PSYC4802-20142	1.0	Block	exp	147	20140423.115102	same	60	same	1	5391
AL	48	19	F	PSYC4802-20142	1.0	Block	exp	148	20140423.115109	same	100	same	1	7905
AL	48	19	F	PSYC4802-20142	1.0	Block	exp	149	20140423.115119	same	100	same	1	8145
AL	48	19	F	PSYC4802-20142	1.0	Block	exp	150	20140423.115129	diff	60	diff	1	6833
